Power,__session,key_resp.keys,__experimentName,trials.thisTrialN,SESSION_ID,mouse.y,Word1,key_resp_4.keys,__participant,key_resp_2.duration,key_resp.duration,mouse.leftButton,Freq,PROLIFIC_PID,Culture,key_resp.rt,main.stopped,key_resp_2.rt,Form,end.started,pause.stopped,trials.thisRepN,RelFreq,mouse.x,main.started,Nonalpha,Lapse,OverallFreq,begin_exp.stopped,Icon,ris.stopped,trials.thisIndex,Alpha,psychopyVersion,frameRate,key_resp_3.keys,session,GenPref,NoFinalStress,mouse.midButton,key_resp_2.keys,Weird,__datetime,STUDY_ID,ris.started,end.stopped,mouse.clicked_name,mouse.corr,trials.thisN,Intense,OS,begin_exp.started,Attested,key_resp_4.rt,trial.started,expName,Percept,trial.stopped,date,mouse.time,participant,key_resp_3.duration,Word2,trials.ran,key_resp_3.rt,mouse.rightButton,Len,pause.started
﻿,001,,eng-binoms-human-judgements,,692f65cc7c3feb3eec0c8c8d,,,,698832,,,,,5fdf1be98bcb1f7107541cb7,,,,,,,,,,,,,,,4.039200000047684,,,,,2025.1.1,83.33333333333333,return,001,,,,,,2025-12-02_17h18.58.886,692e60e5c807364132bee744,,,,,,,Win32,9.99999046324973e-05,,,,human-judgements,,,2025-12-02_17h19.04.604,,698832,,,,3.9935999999046334,,,
﻿,001,,eng-binoms-human-judgements,,692f65cc7c3feb3eec0c8c8d,,,space,698832,,,,,5fdf1be98bcb1f7107541cb7,,,,,,,,,,,,,,,,,12.418599999904632,,,2025.1.1,83.33333333333333,,001,,,,,,2025-12-02_17h18.58.886,692e60e5c807364132bee744,4.039400000095368,,,,,,Win32,,,8.361,,human-judgements,,,2025-12-02_17h19.04.604,,698832,,,,,,,
﻿,001,return,eng-binoms-human-judgements,,692f65cc7c3feb3eec0c8c8d,,,,698832,,,,,5fdf1be98bcb1f7107541cb7,,5.375200000047684,,,,,,,,,,,,,,,,,,2025.1.1,83.33333333333333,,001,,,,,,2025-12-02_17h18.58.886,692e60e5c807364132bee744,,,,,,,Win32,,,,12.418700000047686,human-judgements,,17.802900000095367,2025-12-02_17h19.04.604,,698832,,,,,,,
﻿1,001,,eng-binoms-human-judgements,0,692f65cc7c3feb3eec0c8c8d,"[-0.0023430178069353325,-0.4034676663542643]",mr.,,698832,,,"[1,1]",0.649469027,5fdf1be98bcb1f7107541cb7,0,,25.470299999952317,,0,,25.9635,0,0.998090817,"[-0.358169312553084,-0.007653820034266635]",17.8175,mrs. and mr.,0,1680824,,0,,132,mr. and mrs.,2025.1.1,83.33333333333333,,001,0.640834642,0,"[0,0]",,no,2025-12-02_17h18.58.886,692e60e5c807364132bee744,,,"[""text_10"",""text_9""]","[0,1]",0,0,Win32,,1,,,human-judgements,0,,2025-12-02_17h19.04.604,"[5.767400000095368,7.401900000095363]",698832,,mrs.,1,,"[0,0]",0,25.470599999904636
﻿-1,001,,eng-binoms-human-judgements,1,692f65cc7c3feb3eec0c8c8d,"[-0.016713565157860825,-0.41721338988914597]",nationalism,,698832,,,"[1,1]",-0.048887904,5fdf1be98bcb1f7107541cb7,1,,32.61929999995232,,0,,33.11629999995232,0,0.500313087,"[0.24351768886920103,-0.018900305507556232]",25.96559999990463,sovereignty and nationalism,1,1597,,0,,98,nationalism and sovereignty,2025.1.1,83.33333333333333,,001,0.375409638,0,"[0,0]",,no,2025-12-02_17h18.58.886,692e60e5c807364132bee744,,,"[""text_11"",""text_9""]","[0,1]",1,0,Win32,,1,,,human-judgements,0,,2025-12-02_17h19.04.604,"[5.5182000000476705,6.400999999999996]",698832,,sovereignty,1,,"[0,0]",-2,32.6195
﻿0,001,,eng-binoms-human-judgements,2,692f65cc7c3feb3eec0c8c8d,"[-0.004217432052483599,-0.39659483318811506]",cod,,698832,,,"[1,1]",-0.6132146,5fdf1be98bcb1f7107541cb7,1,,41.97620000004768,,0,,42.46279999995231,0,0.503396739,"[0.24351768886920103,-0.007029053420805998]",33.11740000009536,salmon and cod,1,1472,,0,,15,cod and salmon,2025.1.1,83.33333333333333,,001,0.696176165,1,"[0,0]",,no,2025-12-02_17h18.58.886,692e60e5c807364132bee744,,,"[""text_11"",""text_9""]","[0,1]",2,0,Win32,,1,,,human-judgements,0,,2025-12-02_17h19.04.604,"[7.742000000000004,8.607899999856954]",698832,,salmon,1,,"[0,0]",1,41.97640000009537
﻿-1,001,,eng-binoms-human-judgements,3,692f65cc7c3feb3eec0c8c8d,"[0.018900305507556232,-0.38847235238987815]",child,,698832,,,"[1,1]",0.542274311,5fdf1be98bcb1f7107541cb7,0,,45.94840000009536,,0,,46.451900000095364,0,0.02212795,"[-0.31880658479527885,0.006091846298031865]",42.463900000095364,wife and child,0,166893,,0,,88,child and wife,2025.1.1,83.33333333333333,,001,0.397225022,0,"[0,0]",,no,2025-12-02_17h18.58.886,692e60e5c807364132bee744,,,"[""text_11"",""text_9""]","[0,1]",3,0,Win32,,1,,,human-judgements,0,,2025-12-02_17h19.04.604,"[2.4307999999523275,3.22979999995232]",698832,,wife,1,,"[0,0]",0,45.948499999999996
﻿0,001,,eng-binoms-human-judgements,4,692f65cc7c3feb3eec0c8c8d,"[-0.017338331771321464,-0.39971883786316775]",anxiety,,698832,,,"[1,1]",2.153680754,5fdf1be98bcb1f7107541cb7,0,,52.337,,0,,52.83820000004768,0,0.616583983,"[-0.2325835295000586,0.012964736666764292]",46.452599999904635,dismay and anxiety,-2,1411,,0,,125,anxiety and dismay,2025.1.1,83.33333333333333,,001,0.459865509,-1,"[0,0]",,no,2025-12-02_17h18.58.886,692e60e5c807364132bee744,,,"[""text_10"",""text_9""]","[0,1]",4,0,Win32,,1,,,human-judgements,0,,2025-12-02_17h19.04.604,"[4.995599999904627,5.6308999998569504]",698832,,dismay,1,,"[0,0]",-2,52.33720000004769
﻿0,001,,eng-binoms-human-judgements,5,692f65cc7c3feb3eec0c8c8d,"[-0.001093427377430881,-0.3928460046970185]",Tories,,698832,,,"[1,1]",-0.462626371,5fdf1be98bcb1f7107541cb7,0,,56.73170000004768,,0,,57.22609999990463,0,0.155034047,"[-0.25945015275377814,-0.037019681349578254]",52.84090000009536,Whigs and Tories,-1,24672,,0,,33,Tories and Whigs,2025.1.1,83.33333333333333,,001,0.383298398,-1,"[0,0]",,no,2025-12-02_17h18.58.886,692e60e5c807364132bee744,,,"[""text_11"",""text_9""]","[0,1]",5,0,Win32,,1,,,human-judgements,0,,2025-12-02_17h19.04.604,"[2.899200000047685,3.6412999999523095]",698832,,Whigs,1,,"[0,0]",-1,56.731799999952315
﻿0,001,,eng-binoms-human-judgements,6,692f65cc7c3feb3eec0c8c8d,"[-0.01483915091231256,-0.3953452427586106]",contraction,,698832,,,"[1,1]",1.356318215,5fdf1be98bcb1f7107541cb7,0,,64.04679999995231,,0,,64.55440000009537,0,0.610674614,"[-0.17822551637915884,-0.0151514770164597]",57.22809999990463,dilatation and contraction,0,3691,,0,,29,contraction and dilatation,2025.1.1,83.33333333333333,,001,0.632519451,0,"[0,0]",,no,2025-12-02_17h18.58.886,692e60e5c807364132bee744,,,"[""text_10"",""text_9""]","[0,1]",6,1,Win32,,1,,,human-judgements,0,,2025-12-02_17h19.04.604,"[5.760299999952309,6.567099999904627]",698832,,dilatation,1,,"[0,0]",2,64.04690000009536
﻿-1,001,,eng-binoms-human-judgements,7,692f65cc7c3feb3eec0c8c8d,"[0.008903467666354265,-0.3953452427586106]",depth,,698832,,,"[1,1]",-1.487446969,5fdf1be98bcb1f7107541cb7,0,,68.575,,0,,69.07779999995232,0,0.615952733,"[0.2766323786756092,0.011090322421216027]",64.55559999990463,force and depth,0,4062,,0,,43,depth and force,2025.1.1,83.33333333333333,,001,0.345841179,0,"[0,0]",,no,2025-12-02_17h18.58.886,692e60e5c807364132bee744,,,"[""text_10"",""text_9""]","[0,1]",7,0,Win32,,1,,,human-judgements,0,,2025-12-02_17h19.04.604,"[3.0979000000953647,3.7660000000000053]",698832,,force,1,,"[0,0]",0,68.57509999990464
﻿0,001,,eng-binoms-human-judgements,8,692f65cc7c3feb3eec0c8c8d,"[-0.007341493930119494,-0.39971883786316775]",error,,698832,,,"[1,1]",-0.045549711,5fdf1be98bcb1f7107541cb7,0,,71.42670000004769,,0,,71.92390000009537,0,0.00048656,"[-0.32755388940955954,-0.04451733833177132]",69.07870000004769,trial and error,0,454209,,-1,,194,error and trial,2025.1.1,83.33333333333333,,001,0.1682363,0,"[0,0]",,no,2025-12-02_17h18.58.886,692e60e5c807364132bee744,,,"[""text_11"",""text_9""]","[0,1]",8,0,Win32,,1,,,human-judgements,-1,,2025-12-02_17h19.04.604,"[1.350999999999999,2.0981999998092675]",698832,,trial,1,,"[0,0]",0,71.42679999995232
﻿0,001,,eng-binoms-human-judgements,9,692f65cc7c3feb3eec0c8c8d,"[0.006404229604762184,-0.39971883786316775]",integrity,,698832,,,"[1,1]",-0.686731756,5fdf1be98bcb1f7107541cb7,0,,74.48040000009537,,0,,74.97920000004768,0,0.253878407,"[0.31474543020003515,0.03170887912224695]",71.92520000004768,unity and integrity,0,9540,,0,,175,integrity and unity,2025.1.1,83.33333333333333,,001,0.485440396,0,"[0,0]",,no,2025-12-02_17h18.58.886,692e60e5c807364132bee744,,,"[""text_11"",""text_9""]","[0,1]",9,0,Win32,,1,,,human-judgements,0,,2025-12-02_17h19.04.604,"[1.620799999952311,2.301099999904636]",698832,,unity,1,,"[0,0]",0,74.48040000009537
﻿-1,001,,eng-binoms-human-judgements,10,692f65cc7c3feb3eec0c8c8d,"[0.005779405788718369,-0.39659483318811506]",influence,,698832,,,"[1,1]",-1.060110212,5fdf1be98bcb1f7107541cb7,0,,77.72090000009537,,0,,78.2325,0,0.188901131,"[0.2891283973758201,0.022336807894505623]",74.98040000009537,power and influence,-1,314032,,0,,109,influence and power,2025.1.1,83.33333333333333,,001,0.363478198,0,"[0,0]",,no,2025-12-02_17h18.58.886,692e60e5c807364132bee744,,,"[""text_11"",""text_9""]","[0,1]",10,0,Win32,,1,,,human-judgements,0,,2025-12-02_17h19.04.604,"[1.833900000095369,2.4897000000476908]",698832,,power,1,,"[0,0]",-1,77.72090000009537
﻿0,001,,eng-binoms-human-judgements,11,692f65cc7c3feb3eec0c8c8d,"[-0.014214327096268744,-0.4047173139863519]",college,,698832,,,"[1,1]",-0.885624709,5fdf1be98bcb1f7107541cb7,-1,,82.95920000004769,,-1,,83.46159999990464,0,0.027644737,"[-0.2450796626054358,-0.07013431395340324]",78.23390000009537,school and college,-1,301287,,-1,,38,college and school,2025.1.1,83.33333333333333,,001,0.080375007,-1,"[0,0]",,no,2025-12-02_17h18.58.886,692e60e5c807364132bee744,,,"[""text_11"",""text_9""]","[0,1]",11,0,Win32,,1,,,human-judgements,0,,2025-12-02_17h19.04.604,"[3.782900000095367,4.468500000000006]",698832,,school,1,,"[0,0]",-1,82.95920000004769
﻿-1,001,,eng-binoms-human-judgements,12,692f65cc7c3feb3eec0c8c8d,"[-0.019212746016869727,-0.3897220000219658]",brother,,698832,,,"[1,1]",-0.939408558,5fdf1be98bcb1f7107541cb7,-1,,86.39890000009537,,0,,86.90040000009537,0,0.129127092,"[-0.23570759137769448,-0.0032802249297094657]",83.46290000009537,mother and brother,0,57486,,0,,110,brother and mother,2025.1.1,83.33333333333333,,001,0.265872539,0,"[0,0]",,no,2025-12-02_17h18.58.886,692e60e5c807364132bee744,,,"[""text_11"",""text_9""]","[0,1]",12,0,Win32,,1,,,human-judgements,0,,2025-12-02_17h19.04.604,"[2.069700000047689,2.682100000143052]",698832,,mother,1,,"[0,0]",0,86.399
﻿0,001,,eng-binoms-human-judgements,13,692f65cc7c3feb3eec0c8c8d,"[0.0014058106841611997,-0.389097176205922]",cream,,698832,,,"[1,1]",2.236234008,5fdf1be98bcb1f7107541cb7,-1,,89.293,,0,,89.794,0,0.019391803,"[0.31537019681349576,0.03733212185889175]",86.90179999995232,peaches and cream,1,13614,,0,,30,cream and peaches,2025.1.1,83.33333333333333,,001,0.565347997,1,"[0,0]",,no,2025-12-02_17h18.58.886,692e60e5c807364132bee744,,,"[""text_11"",""text_9""]","[0,1]",13,0,Win32,,1,,,human-judgements,0,,2025-12-02_17h19.04.604,"[1.4529000000953687,2.133600000143062]",698832,,peaches,1,,"[0,0]",1,89.29309999990463
﻿0,001,,eng-binoms-human-judgements,14,692f65cc7c3feb3eec0c8c8d,"[0.00827864385031045,-0.3828491096532334]",coat,,698832,,,"[1,1]",-0.084245317,5fdf1be98bcb1f7107541cb7,1,,92.18009999990463,,0,,92.66720000004769,0,0.438711925,"[0.3272415633054124,0.026710402999062792]",89.7955,hat and coat,0,132073,,0,,139,coat and hat,2025.1.1,83.33333333333333,,001,0.529653207,0,"[0,0]",,no,2025-12-02_17h18.58.886,692e60e5c807364132bee744,,,"[""text_10"",""text_9""]","[0,1]",14,0,Win32,,1,,,human-judgements,-1,,2025-12-02_17h19.04.604,"[1.4168999998569518,2.135000000000005]",698832,,hat,1,,"[0,0]",0,92.18009999990463
﻿-1,001,,eng-binoms-human-judgements,15,692f65cc7c3feb3eec0c8c8d,"[0.025148372060244846,-0.3828491096532334]",eloquence,,698832,,,"[1,1]",-3.589254851,5fdf1be98bcb1f7107541cb7,0,,96.59520000004768,,0,,97.09420000004768,0,0.27816747,"[-0.2881911902530459,-0.05139017149792057]",92.66859999990463,force and eloquence,-2,4562,,0,,185,eloquence and force,2025.1.1,83.33333333333333,,001,0.218149038,-1,"[0,0]",,no,2025-12-02_17h18.58.886,692e60e5c807364132bee744,,,"[""text_11"",""text_9""]","[0,1]",15,0,Win32,,1,,,human-judgements,0,,2025-12-02_17h19.04.604,"[2.9147000000476737,3.6622999999523103]",698832,,force,1,,"[0,0]",-2,96.59520000004768
﻿0,001,,eng-binoms-human-judgements,16,692f65cc7c3feb3eec0c8c8d,"[0.009528234279814902,-0.40221807592475983]",jaws,,698832,,,"[1,1]",-2.084776924,5fdf1be98bcb1f7107541cb7,-1,,99.56790000009536,,0,,100.06659999990464,0,0.520556182,"[0.33536398690106606,0.030459231490159326]",97.09590000009537,teeth and jaws,0,26610,,0,,187,jaws and teeth,2025.1.1,83.33333333333333,,001,0.274087942,0,"[0,0]",,no,2025-12-02_17h18.58.886,692e60e5c807364132bee744,,,"[""text_10"",""text_9""]","[0,1]",16,0,Win32,,1,,,human-judgements,-1,,2025-12-02_17h19.04.604,"[1.6029000000953602,2.216200000047678]",698832,,teeth,1,,"[0,0]",0,99.56809999990463
﻿0,001,,eng-binoms-human-judgements,17,692f65cc7c3feb3eec0c8c8d,"[0.003904991543170103,0.018900305507556232,-0.4065917282319002]",fire,,698832,,,"[1,1,1]",-0.656001425,5fdf1be98bcb1f7107541cb7,0,,108.06529999995232,,0,,108.56640000009537,0,0.561584759,"[0.36035613870665417,-0.3331771321462043,-0.012027472341406982]",100.06779999995231,light and fire,-1,21101,,0,,154,fire and light,2025.1.1,83.33333333333333,,001,0.399626345,-1,"[0,0,0]",,no,2025-12-02_17h18.58.886,692e60e5c807364132bee744,,,"[""text_11"",""text_10"",""text_9""]","[0,0,1]",17,1,Win32,,1,,,human-judgements,0,,2025-12-02_17h19.04.604,"[3.893900000095357,6.986400000095358,7.742200000047674]",698832,,light,1,,"[0,0,0]",-1,108.0655
﻿0,001,,eng-binoms-human-judgements,18,692f65cc7c3feb3eec0c8c8d,"[-0.02296157450796626,-0.40221807592475983]",guidance,,698832,,,"[1,1]",-2.597918587,5fdf1be98bcb1f7107541cb7,0,,111.57690000009536,,0,,112.0755,0,0.176269727,"[0.24164327462365276,0.03420805998125586]",108.56720000004769,information and guidance,0,32507,,-1,,157,guidance and information,2025.1.1,83.33333333333333,,001,0.221131534,0,"[0,0]",,no,2025-12-02_17h18.58.886,692e60e5c807364132bee744,,,"[""text_10"",""text_9""]","[0,1]",18,0,Win32,,1,,,human-judgements,0,,2025-12-02_17h19.04.604,"[2.0598999998569383,2.741799999952306]",698832,,information,1,,"[0,0]",2,111.57690000009536
﻿0,001,,eng-binoms-human-judgements,19,692f65cc7c3feb3eec0c8c8d,"[-0.012339912850720478,-0.4353327085285848,-0.4272102849329311]",bread,,698832,,,"[1,1,1]",0.478962208,5fdf1be98bcb1f7107541cb7,1,,114.96290000009537,,0,,115.46259999990464,0,0.98716999,"[-0.3125585754451734,-0.049515757252372304,-0.04576692876127577]",112.07679999995231,butter and bread,1,261886,,0,,0,bread and butter,2025.1.1,83.33333333333333,,001,0.720654857,1,"[0,0,0]",,no,2025-12-02_17h18.58.886,692e60e5c807364132bee744,,,"[""text_10"",null,""text_9""]","[0,1]",19,0,Win32,,1,,,human-judgements,0,,2025-12-02_17h19.04.604,"[1.344899999856949,2.09569999980927,2.627399999856948]",698832,,butter,1,,"[0,0,0]",1,114.963
﻿0,001,,eng-binoms-human-judgements,20,692f65cc7c3feb3eec0c8c8d,"[-0.007966260543580132,-0.39659483318811506]",aggression,,698832,,,"[1,1]",0.118253421,5fdf1be98bcb1f7107541cb7,0,,118.384,,0,,118.88079999995232,0,0.359189978,"[0.2660106598157802,0.02296157450796626]",115.4635,hostility and aggression,1,17481,,0,,122,aggression and hostility,2025.1.1,83.33333333333333,,001,0.52198204,0,"[0,0]",,no,2025-12-02_17h18.58.886,692e60e5c807364132bee744,,,"[""text_11"",""text_9""]","[0,1]",20,1,Win32,,1,,,human-judgements,0,,2025-12-02_17h19.04.604,"[1.913299999952315,2.6539999999999964]",698832,,hostility,1,,"[0,0]",1,118.38409999990463
﻿0,001,,eng-binoms-human-judgements,21,692f65cc7c3feb3eec0c8c8d,"[-0.020462393648957355,-0.39659483318811506]",celebration,,698832,,,"[1,1]",-0.598291389,5fdf1be98bcb1f7107541cb7,0,,122.42020000004767,,-1,,122.91699999999999,0,0.299752271,"[0.2678850740613285,0.011090322421216027]",118.88159999990464,ritual and celebration,1,1211,,0,,79,celebration and ritual,2025.1.1,83.33333333333333,,001,0.362631941,0,"[0,0]",,no,2025-12-02_17h18.58.886,692e60e5c807364132bee744,,,"[""text_11"",""text_9""]","[0,1]",21,0,Win32,,1,,,human-judgements,0,,2025-12-02_17h19.04.604,"[2.6235999999046413,3.2792999999523005]",698832,,ritual,1,,"[0,0]",-1,122.42040000009537
﻿0,001,,eng-binoms-human-judgements,22,692f65cc7c3feb3eec0c8c8d,"[-0.004217432052483599,-0.39097159045147023]",confusions,,698832,,,"[1,1]",-1.890917884,5fdf1be98bcb1f7107541cb7,0,,126.0485,,0,,126.54759999990462,0,0.555994424,"[0.23789444613255623,0.03420805998125586]",122.91809999990464,contradictions and confusions,0,4304,,-1,,58,confusions and contradictions,2025.1.1,83.33333333333333,,001,0.218935796,0,"[0,0]",,no,2025-12-02_17h18.58.886,692e60e5c807364132bee744,,,"[""text_11"",""text_9""]","[0,1]",22,-1,Win32,,1,,,human-judgements,0,,2025-12-02_17h19.04.604,"[2.2560000000000002,2.876700000047691]",698832,,contradictions,1,,"[0,0]",2,126.04859999990462
﻿0,001,,eng-binoms-human-judgements,23,692f65cc7c3feb3eec0c8c8d,"[-0.007966260543580132,-0.412214970968545]",development,,698832,,,"[1,1]",0.607362804,5fdf1be98bcb1f7107541cb7,0,,131.30450000000002,,0,,131.80459999990464,0,0.718661519,"[-0.1825991686862992,-0.03577003371749063]",126.54929999995231,practice and development,-1,7770,,0,,99,development and practice,2025.1.1,83.33333333333333,,001,0.52819611,0,"[0,0]",,no,2025-12-02_17h18.58.886,692e60e5c807364132bee744,,,"[""text_11"",""text_9""]","[0,1]",23,0,Win32,,1,,,human-judgements,0,,2025-12-02_17h19.04.604,"[3.8893999998569484,4.500599999904637]",698832,,practice,1,,"[0,0]",-1,131.30459999990464
﻿1,001,,eng-binoms-human-judgements,24,692f65cc7c3feb3eec0c8c8d,"[-0.00046860356138706655,-0.3978444236176195]",control,,698832,,,"[1,1]",1.728921312,5fdf1be98bcb1f7107541cb7,0,,134.77609999990466,,0,,135.2742000000477,0,0.53264095,"[0.2928772258669166,0.04482977884108482]",131.80679999995232,intelligence and control,2,2022,,0,,117,control and intelligence,2025.1.1,83.33333333333333,,001,0.751592801,1,"[0,0]",,no,2025-12-02_17h18.58.886,692e60e5c807364132bee744,,,"[""text_11"",""text_9""]","[0,1]",24,0,Win32,,1,,,human-judgements,0,,2025-12-02_17h19.04.604,"[2.063999999999993,2.713299999952312]",698832,,intelligence,1,,"[0,0]",2,134.7762000000477
﻿0,001,,eng-binoms-human-judgements,25,692f65cc7c3feb3eec0c8c8d,"[0.010153058095858716,-0.4009684854952554]",age,,698832,,,"[1,1]",-0.876980304,5fdf1be98bcb1f7107541cb7,0,,138.58829999995234,,0,,139.08100000000002,0,0.004476692,"[-0.37378942173222235,-0.03577003371749063]",135.2752000000477,day and age,0,98957,,-1,,168,age and day,2025.1.1,83.33333333333333,,001,0.20387444,0,"[0,0]",,no,2025-12-02_17h18.58.886,692e60e5c807364132bee744,,,"[""text_11"",""text_9""]","[0,1]",25,0,Win32,,1,,,human-judgements,0,,2025-12-02_17h19.04.604,"[1.9809000000953745,3.0606000001430402]",698832,,day,1,,"[0,0]",0,138.5884000000954
﻿0,001,,eng-binoms-human-judgements,26,692f65cc7c3feb3eec0c8c8d,"[0.00015616305207357076,-0.39034676663542645]",december,,698832,,,"[1,1]",-2.844599301,5fdf1be98bcb1f7107541cb7,0,,141.6484000000954,,0,,142.14040000009538,0,0.302294793,"[0.3078725398313027,0.032958469551751406]",139.08300000000003,may and december,-1,9064,,-1,,141,december and may,2025.1.1,83.33333333333333,,001,0.117379361,-1,"[0,0]",,no,2025-12-02_17h18.58.886,692e60e5c807364132bee744,,,"[""text_11"",""text_9""]","[0,1]",26,0,Win32,,1,,,human-judgements,0,,2025-12-02_17h19.04.604,"[1.6531999998092601,2.310399999856969]",698832,,may,1,,"[0,0]",-1,141.6485
﻿0,001,,eng-binoms-human-judgements,27,692f65cc7c3feb3eec0c8c8d,"[-0.011090322421216027,-0.4009684854952554]",comedy,,698832,,,"[1,1]",-0.197261845,5fdf1be98bcb1f7107541cb7,0,,144.95979999995234,,0,,145.4552000000477,0,0.412774071,"[0.2991253496221884,0.02421122214005389]",142.1412000000477,humor and comedy,-1,2098,,0,,51,comedy and humor,2025.1.1,83.33333333333333,,001,0.506389885,0,"[0,0]",,no,2025-12-02_17h18.58.886,692e60e5c807364132bee744,,,"[""text_11"",""text_9""]","[0,1]",27,0,Win32,,1,,,human-judgements,0,,2025-12-02_17h19.04.604,"[1.883299999952328,2.562900000095368]",698832,,humor,1,,"[0,0]",-1,144.95979999995234
﻿0,001,,eng-binoms-human-judgements,28,692f65cc7c3feb3eec0c8c8d,"[-0.01608874134181701,-0.40159325210871605]",bouquets,,698832,,,"[1,1]",-0.437635781,5fdf1be98bcb1f7107541cb7,1,,148.205,,0,,148.69740000009537,0,0.375936536,"[0.22477354641371836,-0.014526710402999063]",145.45590000009537,wreaths and bouquets,0,2269,,0,,190,bouquets and wreaths,2025.1.1,83.33333333333333,,001,0.600265254,0,"[0,0]",,no,2025-12-02_17h18.58.886,692e60e5c807364132bee744,,,"[""text_11"",""text_9""]","[0,1]",28,0,Win32,,1,,,human-judgements,0,,2025-12-02_17h19.04.604,"[1.8608000001907214,2.4973000001907337]",698832,,wreaths,1,,"[0,0]",0,148.20509999990466
﻿0,001,,eng-binoms-human-judgements,29,692f65cc7c3feb3eec0c8c8d,"[0.0007809868681173852,-0.3815995192237289]",fire,,698832,,,"[1,1]",0.539455162,5fdf1be98bcb1f7107541cb7,0,,151.7042000000477,,0,,152.20340000009537,0,0.278371691,"[0.2985004686035614,-0.022649133998652763]",148.69959999990465,police and fire,-1,126094,,0,,192,fire and police,2025.1.1,83.33333333333333,,001,0.333371974,-1,"[0,0]",,no,2025-12-02_17h18.58.886,692e60e5c807364132bee744,,,"[""text_11"",""text_9""]","[0,1]",29,0,Win32,,1,,,human-judgements,-1,,2025-12-02_17h19.04.604,"[1.806799999952318,2.751299999952323]",698832,,police,1,,"[0,0]",-1,151.70429999995233
﻿0,001,,eng-binoms-human-judgements,30,692f65cc7c3feb3eec0c8c8d,"[-0.016713565157860825,-0.39909407124970714]",magic,,698832,,,"[1,1]",1.668743261,5fdf1be98bcb1f7107541cb7,0,,154.735,,0,,155.22840000009538,0,0.698606742,"[0.20977823244933225,0.006091846298031865]",152.20440000009538,superstition and magic,0,11125,,0,,24,magic and superstition,2025.1.1,83.33333333333333,,001,0.692874788,0,"[0,0]",,no,2025-12-02_17h18.58.886,692e60e5c807364132bee744,,,"[""text_10"",""text_9""]","[0,1]",30,0,Win32,,1,,,human-judgements,1,,2025-12-02_17h19.04.604,"[1.566799999952309,2.2736000001430625]",698832,,superstition,1,,"[0,0]",2,154.73509999990463
﻿0,001,,eng-binoms-human-judgements,31,692f65cc7c3feb3eec0c8c8d,"[0.014526710402999063,-0.4178382137051898]",anger,,698832,,,"[1,1]",-0.068371064,5fdf1be98bcb1f7107541cb7,0,,157.2657000000477,,1,,157.7552000000477,0,0.563397129,"[0.310371835095478,0.009840674789128397]",155.2297000000477,spite and anger,-1,1672,,0,,177,anger and spite,2025.1.1,83.33333333333333,,001,0.462920334,-1,"[0,0]",,no,2025-12-02_17h18.58.886,692e60e5c807364132bee744,,,"[""text_10"",""text_9""]","[0,1]",31,1,Win32,,1,,,human-judgements,0,,2025-12-02_17h19.04.604,"[1.0930999999046378,1.7786999998092767]",698832,,spite,1,,"[0,0]",-1,157.26579999995232
﻿0,001,,eng-binoms-human-judgements,32,692f65cc7c3feb3eec0c8c8d,"[-0.006091846298031865,-0.3984692474336633]",beauty,,698832,,,"[1,1]",-0.812020909,5fdf1be98bcb1f7107541cb7,0,,162.371,,0,,162.8685,0,0.325693046,"[-0.31943140861132263,-0.03327085285848173]",157.7567000000477,truth and beauty,-1,77484,,0,,16,beauty and truth,2025.1.1,83.33333333333333,,001,0.301602565,-1,"[0,0]",,no,2025-12-02_17h18.58.886,692e60e5c807364132bee744,,,"[""text_11"",""text_9""]","[0,1]",32,0,Win32,,1,,,human-judgements,-1,,2025-12-02_17h19.04.604,"[3.643099999904649,4.3629000000953795]",698832,,truth,1,,"[0,0]",-1,162.37109999990466
﻿0,001,,eng-binoms-human-judgements,33,692f65cc7c3feb3eec0c8c8d,"[0.00827864385031045,-0.37410186224153585]",nitrogen,,698832,,,"[1,1]",-0.649438935,5fdf1be98bcb1f7107541cb7,-1,,165.47670000004769,,0,,165.9719000000954,0,0.418694037,"[0.29412687349900424,0.026085636385602157]",162.86929999995232,oxygen and nitrogen,0,93142,,0,,162,nitrogen and oxygen,2025.1.1,83.33333333333333,,001,0.379424354,0,"[0,0]",,no,2025-12-02_17h18.58.886,692e60e5c807364132bee744,,,"[""text_11"",""text_9""]","[0,1]",33,0,Win32,,1,,,human-judgements,0,,2025-12-02_17h19.04.604,"[1.6872999999523302,2.3572999999523176]",698832,,oxygen,1,,"[0,0]",0,165.47670000004769
﻿0,001,,eng-binoms-human-judgements,34,692f65cc7c3feb3eec0c8c8d,"[0.009528234279814902,-0.40221807592475983]",back,,698832,,,"[1,1]",2.934437588,5fdf1be98bcb1f7107541cb7,0,,168.76279999995234,,0,,169.25579999995233,0,0.629536704,"[0.2510153458513941,0.017338331771321464]",165.97309999990463,shoulders and back,1,63372,,0,,75,back and shoulders,2025.1.1,83.33333333333333,,001,0.610708911,1,"[0,0]",,no,2025-12-02_17h18.58.886,692e60e5c807364132bee744,,,"[""text_11"",""text_9""]","[0,1]",34,0,Win32,,1,,,human-judgements,-1,,2025-12-02_17h19.04.604,"[1.8230999999046276,2.536799999952308]",698832,,shoulders,1,,"[0,0]",1,168.76290000009539
﻿0,001,,eng-binoms-human-judgements,35,692f65cc7c3feb3eec0c8c8d,"[-0.0067166701140756796,-0.37910028116213684]",being,,698832,,,"[1,1]",1.98018235,5fdf1be98bcb1f7107541cb7,0,,172.68259999990465,,0,,173.18240000009538,0,0.525961464,"[0.2453921031147493,0.012339912850720478]",169.2572000000477,existence and being,0,12923,,0,,69,being and existence,2025.1.1,83.33333333333333,,001,0.557554485,0,"[0,0]",,no,2025-12-02_17h18.58.886,692e60e5c807364132bee744,,,"[""text_11"",""text_9""]","[0,1]",35,0,Win32,,1,,,human-judgements,0,,2025-12-02_17h19.04.604,"[2.367500000000007,3.1722000000476953]",698832,,existence,1,,"[0,0]",0,172.68279999995232
﻿0,001,,eng-binoms-human-judgements,36,692f65cc7c3feb3eec0c8c8d,"[0.0007809868681173852,-0.39721965700415884]",fingers,,698832,,,"[1,1]",-0.695152648,5fdf1be98bcb1f7107541cb7,0,,176.8785,,0,,177.37240000009538,0,0.380807053,"[0.24476733650128865,-0.015776300832503514]",173.18409999990465,mouth and fingers,-1,2949,,0,,84,fingers and mouth,2025.1.1,83.33333333333333,,001,0.304281481,-1,"[0,0]",,no,2025-12-02_17h18.58.886,692e60e5c807364132bee744,,,"[""text_10"",""text_9""]","[0,1]",36,0,Win32,,1,,,human-judgements,-1,,2025-12-02_17h19.04.604,"[2.6917000000476605,3.44370000004767]",698832,,mouth,1,,"[0,0]",-1,176.87859999990465
﻿0,001,,eng-binoms-human-judgements,37,692f65cc7c3feb3eec0c8c8d,"[-0.006091846298031865,-0.4328335276695759,-0.4090909090909091]",fall,,698832,,,"[1,1,1]",0.501224005,5fdf1be98bcb1f7107541cb7,0,,180.35509999990464,,0,,180.8482000000477,0,0.986579568,"[0.3016245304811973,-0.012652296157450796,-0.0032802249297094657]",177.37409999990464,winter and fall,1,174361,,1,,34,fall and winter,2025.1.1,83.33333333333333,,001,0.857623367,1,"[0,0,0]",,no,2025-12-02_17h18.58.886,692e60e5c807364132bee744,,,"[""text_10"",null,""text_9""]","[0,1]",37,0,Win32,,1,,,human-judgements,0,,2025-12-02_17h19.04.604,"[1.7067000000477037,2.2182000000476876,2.7235000000000014]",698832,,winter,1,,"[0,0,0]",1,180.3552000000477
﻿0,001,,eng-binoms-human-judgements,38,692f65cc7c3feb3eec0c8c8d,"[0.008903467666354265,-0.38847235238987815]",groups,,698832,,,"[1,1]",0.599729376,5fdf1be98bcb1f7107541cb7,0,,183.4682000000477,,0,,183.9675,0,0.252145527,"[0.23352085102799905,-0.007653820034266635]",180.84890000009537,individuals and groups,2,441733,,0,,4,groups and individuals,2025.1.1,83.33333333333333,,001,0.612101023,1,"[0,0]",,no,2025-12-02_17h18.58.886,692e60e5c807364132bee744,,,"[""text_10"",""text_9""]","[0,1]",38,0,Win32,,1,,,human-judgements,-1,,2025-12-02_17h19.04.604,"[1.6946000001430548,2.3617999999522965]",698832,,individuals,1,,"[0,0]",4,183.4682000000477
﻿0,001,,eng-binoms-human-judgements,39,692f65cc7c3feb3eec0c8c8d,"[0.013901886586955249,-0.38784758577641754]",evenings,,698832,,,"[1,1]",0.458504558,5fdf1be98bcb1f7107541cb7,1,,189.824,,0,,190.3169000000954,0,0.821848291,"[-0.2450796626054358,-0.05014058106841612]",183.9687000000477,sundays and evenings,-1,3744,,0,,68,evenings and sundays,2025.1.1,83.33333333333333,,001,0.551613906,-1,"[0,0]",,no,2025-12-02_17h18.58.886,692e60e5c807364132bee744,,,"[""text_11"",""text_9""]","[0,1]",39,0,Win32,,1,,,human-judgements,0,,2025-12-02_17h19.04.604,"[4.981400000095363,5.600300000190742]",698832,,sundays,1,,"[0,0]",0,189.82409999990466
﻿0,001,,eng-binoms-human-judgements,40,692f65cc7c3feb3eec0c8c8d,"[-0.010465498605172211,-0.39034676663542645]",c.,,698832,,,"[1,1]",0.203967469,5fdf1be98bcb1f7107541cb7,0,,193.4165,,0,,193.91529999995234,0,0.629261222,"[0.3728522718120314,0.03358329336779522]",190.31900000000002,d. and c.,0,20006,,-1,,72,c. and d.,2025.1.1,83.33333333333333,,001,0.223581793,0,"[0,0]",,no,2025-12-02_17h18.58.886,692e60e5c807364132bee744,,,"[""text_10"",""text_9""]","[0,1]",40,0,Win32,,1,,,human-judgements,0,,2025-12-02_17h19.04.604,"[1.3461000001430534,2.847500000000025]",698832,,d.,1,,"[0,0]",0,193.41659999990463
﻿0,001,,eng-binoms-human-judgements,41,692f65cc7c3feb3eec0c8c8d,"[-0.02858481724461106,-0.017338331771321464,-0.3759762764870841]",boardinghouses,,698832,,,"[1,1,1]",-4.366398527,5fdf1be98bcb1f7107541cb7,0,,198.5527000000477,,0,,199.05509999990466,0,0.180752841,"[-0.2338331771321462,-0.24445483878939198,-0.03639485753353444]",193.917,hotels and boardinghouses,-1,2816,,0,,23,boardinghouses and hotels,2025.1.1,83.33333333333333,,001,0.233382201,-1,"[0,0,0]",,no,2025-12-02_17h18.58.886,692e60e5c807364132bee744,,,"[null,""text_11"",""text_9""]","[0,1]",41,0,Win32,,1,,,human-judgements,0,,2025-12-02_17h19.04.604,"[2.9142000000476855,3.7069999999999936,4.385600000143057]",698832,,hotels,1,,"[0,0,0]",-3,198.55290000009538
﻿0,001,,eng-binoms-human-judgements,42,692f65cc7c3feb3eec0c8c8d,"[-0.020462393648957355,-0.43345829428303656,-0.40159325210871605]",city,,698832,,,"[1,1,1]",0.148433709,5fdf1be98bcb1f7107541cb7,0,,203.59529999995232,,0,,204.10490000009537,0,0.78497514,"[-0.3356763416065048,-0.03139643861293346,-0.029522024367385193]",199.05679999995232,country and city,0,106397,,1,,149,city and country,2025.1.1,83.33333333333333,,001,0.78847368,0,"[0,0,0]",,no,2025-12-02_17h18.58.886,692e60e5c807364132bee744,,,"[""text_10"",null,""text_9""]","[0,1]",42,0,Win32,,1,,,human-judgements,0,,2025-12-02_17h19.04.604,"[3.0715000000000146,3.7624000000953686,4.288900000095367]",698832,,country,1,,"[0,0,0]",0,203.59529999995232
﻿0,001,,eng-binoms-human-judgements,43,692f65cc7c3feb3eec0c8c8d,"[0.0032802249297094657,-0.40159325210871605]",action,,698832,,,"[1,1]",0.48334065,5fdf1be98bcb1f7107541cb7,0,,208.05179999995232,,0,,208.55109999990464,0,0.324896089,"[0.2872539831302718,-0.011402648525363168]",204.1055,character and action,1,18766,,0,,76,action and character,2025.1.1,83.33333333333333,,001,0.428468078,0,"[0,0]",,no,2025-12-02_17h18.58.886,692e60e5c807364132bee744,,,"[""text_10"",""text_9""]","[0,1]",43,0,Win32,,1,,,human-judgements,-1,,2025-12-02_17h19.04.604,"[2.9465999999046346,3.689799999952328]",698832,,character,1,,"[0,0]",1,208.05200000000002
﻿0,001,,eng-binoms-human-judgements,44,692f65cc7c3feb3eec0c8c8d,"[-0.010465498605172211,-0.4115901471525012]",goods,,698832,,,"[1,1]",-0.671479909,5fdf1be98bcb1f7107541cb7,0,,210.90400000000002,,0,,211.4002000000477,0,0.992598115,"[-0.2557013242626816,0.019212746016869727]",208.55229999995234,services and goods,2,1553253,,0,,70,goods and services,2025.1.1,83.33333333333333,,001,0.663859347,1,"[0,0]",,no,2025-12-02_17h18.58.886,692e60e5c807364132bee744,,,"[""text_10"",""text_9""]","[0,1]",44,0,Win32,,1,,,human-judgements,1,,2025-12-02_17h19.04.604,"[1.5002999999523183,2.102000000000004]",698832,,services,1,,"[0,0]",2,210.90409999990464
﻿0,001,,eng-binoms-human-judgements,45,692f65cc7c3feb3eec0c8c8d,"[-0.007966260543580132,-0.4265854611168873]",imagination,,698832,,,"[1,1]",2.042473073,5fdf1be98bcb1f7107541cb7,0,,217.13840000009537,,0,,217.6405,0,0.493176569,"[0.21415182755388942,-0.02327395781469658]",211.40079999995234,originality and imagination,1,4763,,0,,115,imagination and originality,2025.1.1,83.33333333333333,,001,0.551645542,0,"[0,0]",,no,2025-12-02_17h18.58.886,692e60e5c807364132bee744,,,"[""text_10"",""text_9""]","[0,1]",45,0,Win32,,1,,,human-judgements,0,,2025-12-02_17h19.04.604,"[3.1552999999523195,5.487399999856933]",698832,,originality,1,,"[0,0]",1,217.13850000000002
﻿0,001,,eng-binoms-human-judgements,46,692f65cc7c3feb3eec0c8c8d,"[0.006404229604762184,-0.40846614247744845]",prose,,698832,,,"[1,1]",-0.658037344,5fdf1be98bcb1f7107541cb7,0,,222.9377000000477,,0,,223.43929999995234,0,0.656706845,"[0.3166198444455834,0.03483288379729967]",217.6415,verse and prose,0,173062,,0,,77,prose and verse,2025.1.1,83.33333333333333,,001,0.486218476,0,"[0,0]",,no,2025-12-02_17h18.58.886,692e60e5c807364132bee744,,,"[""text_10"",""text_9""]","[0,1]",46,0,Win32,,1,,,human-judgements,0,,2025-12-02_17h19.04.604,"[4.196299999952316,5.038200000047681]",698832,,verse,1,,"[0,0]",0,222.93779999995232
﻿0,001,,eng-binoms-human-judgements,47,692f65cc7c3feb3eec0c8c8d,"[0.01765071507805178,-0.0035926654390229617,-0.4003436616792116]",comb,,698832,,,"[1,1,1]",2.991184154,5fdf1be98bcb1f7107541cb7,1,,229.37979999995233,,0,,229.87879999995232,0,0.953244659,"[-0.2694470477975633,0.2778819119025305,0.05232743582327788]",223.44009999990465,wattles and comb,1,4962,,0,,182,comb and wattles,2025.1.1,83.33333333333333,,001,0.824421734,1,"[0,0,0]",,no,2025-12-02_17h18.58.886,692e60e5c807364132bee744,,,"[""text_10"",""text_11"",""text_9""]","[0,0,1]",47,0,Win32,,1,,,human-judgements,1,,2025-12-02_17h19.04.604,"[3.8143999998569313,4.873799999952297,5.686499999999995]",698832,,wattles,1,,"[0,0,0]",1,229.37979999995233
﻿0,001,,eng-binoms-human-judgements,48,692f65cc7c3feb3eec0c8c8d,"[0.023898781630740395,-0.37910028116213684]",leaves,,698832,,,"[1,1]",1.948211043,5fdf1be98bcb1f7107541cb7,-1,,233.48290000009538,,0,,233.97559999990466,0,0.306367432,"[0.2847548022712629,0.023586398324010074]",229.87990000009538,limbs and leaves,0,3832,,0,,159,leaves and limbs,2025.1.1,83.33333333333333,,001,0.447688825,0,"[0,0]",,no,2025-12-02_17h18.58.886,692e60e5c807364132bee744,,,"[""text_10"",""text_9""]","[0,1]",48,0,Win32,,1,,,human-judgements,0,,2025-12-02_17h19.04.604,"[2.532799999952317,3.3510999999046476]",698832,,limbs,1,,"[0,0]",0,233.483
﻿0,001,,eng-binoms-human-judgements,49,692f65cc7c3feb3eec0c8c8d,"[0.014526710402999063,-0.3872227619603737]",abasement,,698832,,,"[1,1]",-2.543990055,5fdf1be98bcb1f7107541cb7,0,,238.6294000000954,,-1,,239.13079999995233,0,0.470046083,"[0.12855359607471298,-0.021399543569148312]",233.97600000000003,humiliation and abasement,0,1085,,1,,11,abasement and humiliation,2025.1.1,83.33333333333333,,001,0.770008509,0,"[0,0]",,no,2025-12-02_17h18.58.886,692e60e5c807364132bee744,,,"[""text_10"",""text_9""]","[0,1]",49,1,Win32,,1,,,human-judgements,0,,2025-12-02_17h19.04.604,"[3.719400000095362,4.395600000143048]",698832,,humiliation,1,,"[0,0]",2,238.6294000000954
﻿0,001,,eng-binoms-human-judgements,50,692f65cc7c3feb3eec0c8c8d,"[-0.004217432052483599,-0.4034676663542643]",letters,,698832,,,"[1,1]",1.845020111,5fdf1be98bcb1f7107541cb7,1,,241.64459999990464,,0,,242.1492000000477,0,0.645516075,"[0.22102471792262185,0.040456126533944474]",239.13229999995232,magazines and letters,-1,1182,,0,,37,letters and magazines,2025.1.1,83.33333333333333,,001,0.623091639,-1,"[0,0]",,no,2025-12-02_17h18.58.886,692e60e5c807364132bee744,,,"[""text_10"",""text_9""]","[0,1]",50,0,Win32,,1,,,human-judgements,0,,2025-12-02_17h19.04.604,"[1.6229999999999905,2.2590999999046346]",698832,,magazines,1,,"[0,0]",1,241.64479999995234
﻿0,001,,eng-binoms-human-judgements,51,692f65cc7c3feb3eec0c8c8d,"[-0.001093427377430881,-0.40221807592475983]",bourbon,,698832,,,"[1,1]",-4.845107259,5fdf1be98bcb1f7107541cb7,1,,244.57209999990465,,0,,245.07509999990464,0,0.984338434,"[0.28288038802571464,0.03483288379729967]",242.15079999995234,water and bourbon,0,5555,,0,,5,bourbon and water,2025.1.1,83.33333333333333,,001,0.482040824,0,"[0,0]",,no,2025-12-02_17h18.58.886,692e60e5c807364132bee744,,,"[""text_11"",""text_9""]","[0,1]",51,0,Win32,,1,,,human-judgements,0,,2025-12-02_17h19.04.604,"[1.5697000000476748,2.1634000000953506]",698832,,water,1,,"[0,0]",0,244.5722000000477
﻿0,001,,eng-binoms-human-judgements,52,692f65cc7c3feb3eec0c8c8d,"[0.011402648525363168,-0.035457707613343485,-0.02421122214005389,-0.38784758577641754]",cakes,,698832,,,"[1,1,1,1]",0.816626427,5fdf1be98bcb1f7107541cb7,1,,251.01370000004766,,0,,251.51740000009534,0,0.503401661,"[0.2891283973758201,-0.2650733954904229,-0.28069353327085284,-0.004529815359213918]",245.0764000000954,pies and cakes,0,22636,,0,,35,cakes and pies,2025.1.1,83.33333333333333,,001,0.632445541,0,"[0,0,0,0]",,no,2025-12-02_17h18.58.886,692e60e5c807364132bee744,,,"[""text_11"",null,""text_10"",""text_9""]","[0,0,1]",52,0,Win32,,1,,,human-judgements,0,,2025-12-02_17h19.04.604,"[3.174799999952313,4.387099999904649,5.0169999999999675,5.677899999856919]",698832,,pies,1,,"[0,0,0,0]",0,251.01370000004766
﻿0,001,,eng-binoms-human-judgements,53,692f65cc7c3feb3eec0c8c8d,"[-0.0067166701140756796,-0.4065917282319002]",flesh,,698832,,,"[1,1]",-0.912706578,5fdf1be98bcb1f7107541cb7,0,,254.4535999999046,,0,,254.9565,0,0.353532057,"[0.35785695784764526,0.026085636385602157]",251.5190999999046,skin and flesh,0,27576,,0,,133,flesh and skin,2025.1.1,83.33333333333333,,001,0.479315608,0,"[0,0]",,no,2025-12-02_17h18.58.886,692e60e5c807364132bee744,,,"[""text_10"",""text_9""]","[0,1]",53,0,Win32,,1,,,human-judgements,0,,2025-12-02_17h19.04.604,"[2.0686000001430784,2.684300000190774]",698832,,skin,1,,"[0,0]",0,254.45370000004766
﻿0,001,,eng-binoms-human-judgements,54,692f65cc7c3feb3eec0c8c8d,"[0.003904991543170103,-0.39721965700415884]",friends,,698832,,,"[1,1]",0.218318519,5fdf1be98bcb1f7107541cb7,-1,,257.93109999990463,,0,,258.4265999999046,0,0.67413016,"[0.2778819119025305,0.035457707613343485]",254.95740000009533,relations and friends,1,83205,,0,,48,friends and relations,2025.1.1,83.33333333333333,,001,0.510960193,1,"[0,0]",,no,2025-12-02_17h18.58.886,692e60e5c807364132bee744,,,"[""text_11"",""text_9""]","[0,1]",54,0,Win32,,1,,,human-judgements,0,,2025-12-02_17h19.04.604,"[2.0276000001430248,2.7214000000953433]",698832,,relations,1,,"[0,0]",1,257.9312000000477
﻿0,001,,eng-binoms-human-judgements,55,692f65cc7c3feb3eec0c8c8d,"[0.01077788191190253,-0.3641049671977507,-0.41721338988914597]",ammunition,,698832,,,"[1,1,1]",-1.248388502,5fdf1be98bcb1f7107541cb7,-1,,261.58009999990463,,0,,262.06470000004765,0,0.039624366,"[-0.22383628208836107,-0.029522024367385193,-0.012027472341406982]",258.4275,guns and ammunition,-1,55799,,0,,97,ammunition and guns,2025.1.1,83.33333333333333,,001,0.216084531,-1,"[0,0,0]",,no,2025-12-02_17h18.58.886,692e60e5c807364132bee744,,,"[""text_11"",null,""text_9""]","[0,1]",55,0,Win32,,1,,,human-judgements,0,,2025-12-02_17h19.04.604,"[1.6675000000000182,2.33289999985692,2.900799999952312]",698832,,guns,1,,"[0,0,0]",-3,261.58009999990463
﻿0,001,,eng-binoms-human-judgements,56,692f65cc7c3feb3eec0c8c8d,"[-0.0035926654390229617,-0.3953452427586106]",crannies,,698832,,,"[1,1]",-0.554863107,5fdf1be98bcb1f7107541cb7,0,,264.09320000004766,,0,,264.58459999990464,0,0.002648719,"[-0.267572633552015,-0.0014058106841611997]",262.0657000000477,nooks and crannies,-1,46060,,0,,100,crannies and nooks,2025.1.1,83.33333333333333,,001,0.307514874,-1,"[0,0]",,no,2025-12-02_17h18.58.886,692e60e5c807364132bee744,,,"[""text_11"",""text_9""]","[0,1]",56,0,Win32,,1,,,human-judgements,-1,,2025-12-02_17h19.04.604,"[1.1504999999999654,1.7654999999999745]",698832,,nooks,1,,"[0,0]",-1,264.0932999999523
﻿0,001,,eng-binoms-human-judgements,57,692f65cc7c3feb3eec0c8c8d,"[-0.019837569832913543,-0.39909407124970714]",crime,,698832,,,"[1,1]",0.560492999,5fdf1be98bcb1f7107541cb7,0,,266.8322000000477,,0,,267.3234000000954,0,0.988593732,"[-0.28069353327085284,-0.05388940955951265]",264.58549999999997,punishment and crime,2,131945,,1,,66,crime and punishment,2025.1.1,83.33333333333333,,001,0.854636634,1,"[0,0]",,no,2025-12-02_17h18.58.886,692e60e5c807364132bee744,,,"[""text_10"",""text_9""]","[0,1]",57,0,Win32,,1,,,human-judgements,0,,2025-12-02_17h19.04.604,"[1.2431000001430448,1.9969000000953656]",698832,,punishment,1,,"[0,0]",2,266.83240000009533
﻿1,001,,eng-binoms-human-judgements,58,692f65cc7c3feb3eec0c8c8d,"[-0.01608874134181701,-0.3865979381443299]",control,,698832,,,"[1,1]",0.675684866,5fdf1be98bcb1f7107541cb7,0,,271.0217999999523,,0,,271.5187999999523,0,0.180060757,"[0.2316464367824508,-0.022024367385192128]",267.32490000009534,growth and control,0,3621,,0,,138,control and growth,2025.1.1,83.33333333333333,,001,0.641489378,0,"[0,0]",,no,2025-12-02_17h18.58.886,692e60e5c807364132bee744,,,"[""text_10"",""text_9""]","[0,1]",58,0,Win32,,1,,,human-judgements,0,,2025-12-02_17h19.04.604,"[2.739500000000021,3.442899999856934]",698832,,growth,1,,"[0,0]",0,271.02190000009534
﻿0,001,,eng-binoms-human-judgements,59,692f65cc7c3feb3eec0c8c8d,"[-0.011090322421216027,-0.39721965700415884]",bacteria,,698832,,,"[1,1]",0.294113475,5fdf1be98bcb1f7107541cb7,0,,274.4920999999046,,0,,274.98970000004766,0,0.454957507,"[-0.272571052472616,-0.03639485753353444]",271.5195,insects and bacteria,-2,1765,,0,,127,bacteria and insects,2025.1.1,83.33333333333333,,001,0.367273118,-1,"[0,0]",,no,2025-12-02_17h18.58.886,692e60e5c807364132bee744,,,"[""text_11"",""text_9""]","[0,1]",59,0,Win32,,1,,,human-judgements,-1,,2025-12-02_17h19.04.604,"[1.7970000000000255,2.717599999904621]",698832,,insects,1,,"[0,0]",-1,274.4920999999046
﻿0,001,,eng-binoms-human-judgements,60,692f65cc7c3feb3eec0c8c8d,"[-0.02296157450796626,-0.4034676663542643]",despair,,698832,,,"[1,1]",0.114025832,5fdf1be98bcb1f7107541cb7,0,,277.47140000009534,,0,,277.96540000009537,0,0.173276566,"[0.2985004686035614,0.010465498605172211]",274.9907000000477,rage and despair,0,17146,,0,,191,despair and rage,2025.1.1,83.33333333333333,,001,0.484786752,0,"[0,0]",,no,2025-12-02_17h18.58.886,692e60e5c807364132bee744,,,"[""text_11"",""text_9""]","[0,1]",60,-1,Win32,,1,,,human-judgements,0,,2025-12-02_17h19.04.604,"[1.5273000001907349,2.2262000000476974]",698832,,rage,1,,"[0,0]",0,277.4715
﻿0,001,,eng-binoms-human-judgements,61,692f65cc7c3feb3eec0c8c8d,"[0.020774748354396088,-0.3922211808809747]",fiction,,698832,,,"[1,1]",-0.553299438,5fdf1be98bcb1f7107541cb7,0,,280.86590000009534,,0,,281.3617000000477,0,0.500935124,"[0.2860044499033505,0.026085636385602157]",277.96659999990464,poetry and fiction,1,65232,,0,,53,fiction and poetry,2025.1.1,83.33333333333333,,001,0.481395176,0,"[0,0]",,no,2025-12-02_17h18.58.886,692e60e5c807364132bee744,,,"[""text_10"",""text_9""]","[0,1]",61,0,Win32,,1,,,human-judgements,0,,2025-12-02_17h19.04.604,"[1.914599999904624,2.6492999999523477]",698832,,poetry,1,,"[0,0]",1,280.86590000009534
﻿0,001,,eng-binoms-human-judgements,62,692f65cc7c3feb3eec0c8c8d,"[-0.03233364573570759,-0.023586398324010074,-0.4115901471525012]",everybody,,698832,,,"[1,1,1]",-1.442128716,5fdf1be98bcb1f7107541cb7,0,,286.2625,,0,,286.7630999999046,0,0.362674747,"[0.21852553706361294,0.21165264669488051,0.015463917525773196]",281.36290000009535,everything and everybody,-1,88771,,0,,2,everybody and everything,2025.1.1,83.33333333333333,,001,0.436416445,-1,"[0,0,0]",,no,2025-12-02_17h18.58.886,692e60e5c807364132bee744,,,"[null,""text_11"",""text_9""]","[0,1]",62,0,Win32,,1,,,human-judgements,1,,2025-12-02_17h19.04.604,"[3.29839999985694,3.9453999998569316,4.64520000004768]",698832,,everything,1,,"[0,0,0]",-1,286.26259999990464
﻿0,001,,eng-binoms-human-judgements,63,692f65cc7c3feb3eec0c8c8d,"[-0.007966260543580132,-0.39659483318811506]",pain,,698832,,,"[1,1]",-0.362927679,5fdf1be98bcb1f7107541cb7,0,,289.6742000000477,,0,,290.1747999999523,0,0.478805306,"[0.2572633552014995,0.004217432052483599]",286.76490000009534,pressure and pain,1,10781,,0,,148,pain and pressure,2025.1.1,83.33333333333333,,001,0.62435594,1,"[0,0]",,no,2025-12-02_17h18.58.886,692e60e5c807364132bee744,,,"[""text_11"",""text_9""]","[0,1]",63,1,Win32,,1,,,human-judgements,0,,2025-12-02_17h19.04.604,"[1.2407000000476387,2.656900000095334]",698832,,pressure,1,,"[0,0]",1,289.6742999999523
﻿0,001,,eng-binoms-human-judgements,64,692f65cc7c3feb3eec0c8c8d,"[-0.012964736666764292,-0.42283663262579074]",aims,,698832,,,"[1,1]",-1.251492281,5fdf1be98bcb1f7107541cb7,0,,293.9540999999046,,0,,294.45599999999996,0,0.46074793,"[0.3091221874633904,0.0023430178069353325]",290.176,ends and aims,0,7006,,0,,143,aims and ends,2025.1.1,83.33333333333333,,001,0.470145419,0,"[0,0]",,no,2025-12-02_17h18.58.886,692e60e5c807364132bee744,,,"[""text_10"",""text_9""]","[0,1]",64,0,Win32,,1,,,human-judgements,0,,2025-12-02_17h19.04.604,"[2.7244999999999777,3.519700000047692]",698832,,ends,1,,"[0,0]",0,293.95420000004765
﻿0,001,,eng-binoms-human-judgements,65,692f65cc7c3feb3eec0c8c8d,"[-0.007966260543580132,-0.4028428997408037]",blood,,698832,,,"[1,1]",4.208963829,5fdf1be98bcb1f7107541cb7,0,,297.0025,,0,,297.5037000000477,0,0.960755432,"[0.30474859235883317,-0.005779405788718369]",294.4575,guts and blood,0,19009,,0,,46,blood and guts,2025.1.1,83.33333333333333,,001,0.594750794,0,"[0,0]",,no,2025-12-02_17h18.58.886,692e60e5c807364132bee744,,,"[""text_10"",""text_9""]","[0,1]",65,-1,Win32,,1,,,human-judgements,0,,2025-12-02_17h19.04.604,"[1.6061000001431012,2.290900000095405]",698832,,guts,1,,"[0,0]",0,297.0027000000477
﻿0,001,,eng-binoms-human-judgements,66,692f65cc7c3feb3eec0c8c8d,"[-0.008591084359623946,-0.3934708285130623]",gratitude,,698832,,,"[1,1]",-1.273357813,5fdf1be98bcb1f7107541cb7,0,,301.4745,,0,,301.96999999999997,0,0.280984164,"[0.25226499348348175,0.015463917525773196]",297.50470000004765,joy and gratitude,0,30564,,0,,137,gratitude and joy,2025.1.1,83.33333333333333,,001,0.377199219,0,"[0,0]",,no,2025-12-02_17h18.58.886,692e60e5c807364132bee744,,,"[""text_10"",""text_9""]","[0,1]",66,-1,Win32,,1,,,human-judgements,0,,2025-12-02_17h19.04.604,"[3.021100000143008,3.7136000001430034]",698832,,joy,1,,"[0,0]",-2,301.4745
﻿0,001,,eng-binoms-human-judgements,67,692f65cc7c3feb3eec0c8c8d,"[-0.007966260543580132,-0.39159641426751407]",chairs,,698832,,,"[1,1]",2.962846871,5fdf1be98bcb1f7107541cb7,1,,304.4970999999046,,0,,305.0007000000477,0,0.560722335,"[0.33786316776007497,0.02858481724461106]",301.97049999999996,sofas and chairs,1,35053,,0,,128,chairs and sofas,2025.1.1,83.33333333333333,,001,0.823976028,1,"[0,0]",,no,2025-12-02_17h18.58.886,692e60e5c807364132bee744,,,"[""text_11"",""text_9""]","[0,1]",67,0,Win32,,1,,,human-judgements,1,,2025-12-02_17h19.04.604,"[1.684000000000026,2.269299999952352]",698832,,sofas,1,,"[0,0]",1,304.49720000004766
﻿0,001,,eng-binoms-human-judgements,68,692f65cc7c3feb3eec0c8c8d,"[-0.001093427377430881,-0.3828491096532334]",gums,,698832,,,"[1,1]",-2.957066221,5fdf1be98bcb1f7107541cb7,-1,,309.67240000009537,,0,,310.16190000009533,0,0.173536572,"[0.28662921651681117,0.0067166701140756796]",305.00190000009536,teeth and gums,0,36148,,0,,101,gums and teeth,2025.1.1,83.33333333333333,,001,0.322460132,0,"[0,0]",,no,2025-12-02_17h18.58.886,692e60e5c807364132bee744,,,"[""text_11"",""text_9""]","[0,1]",68,0,Win32,,1,,,human-judgements,0,,2025-12-02_17h19.04.604,"[3.010300000190739,4.413700000047697]",698832,,teeth,1,,"[0,0]",0,309.6725
﻿0,001,,eng-binoms-human-judgements,69,692f65cc7c3feb3eec0c8c8d,"[0.004529815359213918,-0.39659483318811506]",ammo,,698832,,,"[1,1]",-3.739255565,5fdf1be98bcb1f7107541cb7,-1,,312.61690000009537,,0,,313.1144000000954,0,0.100361664,"[-0.3213058228568709,-0.06013741890961809]",310.1625999999046,weapons and ammo,1,2212,,0,,197,ammo and weapons,2025.1.1,83.33333333333333,,001,0.370343716,1,"[0,0]",,no,2025-12-02_17h18.58.886,692e60e5c807364132bee744,,,"[""text_11"",""text_9""]","[0,1]",69,0,Win32,,1,,,human-judgements,0,,2025-12-02_17h19.04.604,"[1.5626999998092401,2.198799999952314]",698832,,weapons,1,,"[0,0]",0,312.61690000009537
﻿1,001,,eng-binoms-human-judgements,70,692f65cc7c3feb3eec0c8c8d,"[-0.011715089034676664,-0.4190878041346942]",muscles,,698832,,,"[1,1]",0.566776908,5fdf1be98bcb1f7107541cb7,1,,316.01040000009533,,0,,316.5084000000954,0,0.415555196,"[0.31224624934102624,-0.030771614796889644]",313.1150999999046,nerves and muscles,-1,55557,,0,,126,muscles and nerves,2025.1.1,83.33333333333333,,001,0.637875298,-1,"[0,0]",,no,2025-12-02_17h18.58.886,692e60e5c807364132bee744,,,"[""text_10"",""text_9""]","[0,1]",70,0,Win32,,1,,,human-judgements,0,,2025-12-02_17h19.04.604,"[1.9617000000476992,2.6362000000476655]",698832,,nerves,1,,"[0,0]",-1,316.0105999999046
﻿0,001,,eng-binoms-human-judgements,71,692f65cc7c3feb3eec0c8c8d,"[-0.006091846298031865,-0.4003436616792116]",fun,,698832,,,"[1,1]",-0.579031481,5fdf1be98bcb1f7107541cb7,0,,322.8582999999523,,-1,,323.35290000009536,0,0.684605349,"[-0.3606685220133845,-0.027022786305793113]",316.5095999999046,pleasure and fun,1,6132,,0,,119,fun and pleasure,2025.1.1,83.33333333333333,,001,0.549942205,1,"[0,0]",,no,2025-12-02_17h18.58.886,692e60e5c807364132bee744,,,"[""text_11"",""text_9""]","[0,1]",71,0,Win32,,1,,,human-judgements,0,,2025-12-02_17h19.04.604,"[5.367500000000007,6.094400000095334]",698832,,pleasure,1,,"[0,0]",1,322.85840000009534
﻿0,001,,eng-binoms-human-judgements,72,692f65cc7c3feb3eec0c8c8d,"[-0.007966260543580132,-0.4115901471525012]",caresses,,698832,,,"[1,1]",1.598426382,5fdf1be98bcb1f7107541cb7,0,,326.49809999990464,,0,,327.00220000004765,0,0.705473501,"[0.26038741707913543,0.02171198407846181]",323.3545,endearments and caresses,0,1151,,0,,111,caresses and endearments,2025.1.1,83.33333333333333,,001,0.547308731,0,"[0,0]",,no,2025-12-02_17h18.58.886,692e60e5c807364132bee744,,,"[""text_10"",""text_9""]","[0,1]",72,0,Win32,,1,,,human-judgements,0,,2025-12-02_17h19.04.604,"[2.292799999952308,2.8882999999523236]",698832,,endearments,1,,"[0,0]",0,326.49809999990464
﻿1,001,,eng-binoms-human-judgements,73,692f65cc7c3feb3eec0c8c8d,"[0.020774748354396088,-0.37722586691658855]",iron,,698832,,,"[1,1]",0.026576326,5fdf1be98bcb1f7107541cb7,0,,329.06490000009535,,0,,329.56220000004765,0,0.299317618,"[0.34723523898781633,0.019837569832913543]",327.0032000000477,wood and iron,-1,29016,,0,,188,iron and wood,2025.1.1,83.33333333333333,,001,0.517425181,-1,"[0,0]",,no,2025-12-02_17h18.58.886,692e60e5c807364132bee744,,,"[""text_10"",""text_9""]","[0,1]",73,0,Win32,,1,,,human-judgements,0,,2025-12-02_17h19.04.604,"[1.1772999999523108,1.8077999999522945]",698832,,wood,1,,"[0,0]",-1,329.065
﻿0,001,,eng-binoms-human-judgements,74,692f65cc7c3feb3eec0c8c8d,"[-0.008591084359623946,-0.39034676663542645]",black,,698832,,,"[1,1]",-0.212280694,5fdf1be98bcb1f7107541cb7,0,,331.8082999999523,,0,,332.312,0,0.832201855,"[0.309746954076851,0.002967841622979147]",329.5632000000477,white and black,0,2268565,,0,,150,black and white,2025.1.1,83.33333333333333,,001,0.417527435,0,"[0,0]",,no,2025-12-02_17h18.58.886,692e60e5c807364132bee744,,,"[""text_10"",""text_9""]","[0,1]",74,0,Win32,,1,,,human-judgements,-1,,2025-12-02_17h19.04.604,"[1.335099999904628,1.986799999952325]",698832,,white,1,,"[0,0]",0,331.8082999999523
﻿0,001,,eng-binoms-human-judgements,75,692f65cc7c3feb3eec0c8c8d,"[0.015776300832503514,-0.40784131866140466]",enthusiasm,,698832,,,"[1,1]",0.493774285,5fdf1be98bcb1f7107541cb7,0,,334.4560999999046,,0,,334.95840000009537,0,0.170392157,"[0.2972509353766401,0.03358329336779522]",332.31290000009534,warmth and enthusiasm,-1,5100,,0,,60,enthusiasm and warmth,2025.1.1,83.33333333333333,,001,0.360731422,-1,"[0,0]",,no,2025-12-02_17h18.58.886,692e60e5c807364132bee744,,,"[""text_11"",""text_9""]","[0,1]",75,1,Win32,,1,,,human-judgements,0,,2025-12-02_17h19.04.604,"[1.3257999999523236,1.88900000000001]",698832,,warmth,1,,"[0,0]",-3,334.4560999999046
﻿0,001,,eng-binoms-human-judgements,76,692f65cc7c3feb3eec0c8c8d,"[0.014526710402999063,-0.3709778575664831,-0.3978444236176195]",boots,,698832,,,"[1,1,1]",-0.623759855,5fdf1be98bcb1f7107541cb7,0,,337.67070000004765,,-1,,338.1775999999046,0,0.837170545,"[0.35660731021555764,0.05232743582327788,0.021087160262417994]",334.95890000009535,shoes and boots,0,81005,,0,,12,boots and shoes,2025.1.1,83.33333333333333,,001,0.438793072,0,"[0,0,0]",,no,2025-12-02_17h18.58.886,692e60e5c807364132bee744,,,"[""text_11"",null,""text_9""]","[0,1]",76,0,Win32,,1,,,human-judgements,0,,2025-12-02_17h19.04.604,"[1.1644000000953838,1.7984000000953984,2.444200000047715]",698832,,shoes,1,,"[0,0,0]",0,337.6707999999523
﻿1,001,,eng-binoms-human-judgements,77,692f65cc7c3feb3eec0c8c8d,"[-0.02171198407846181,-0.4178382137051898]",god,,698832,,,"[1,1]",-0.518086474,5fdf1be98bcb1f7107541cb7,0,,341.5225999999046,,0,,342.0254000000954,0,0.82382965,"[-0.33005309886986,-0.048266166822867856]",338.1787999999523,man and god,0,501367,,0,,135,god and man,2025.1.1,83.33333333333333,,001,0.611173713,0,"[0,0]",,no,2025-12-02_17h18.58.886,692e60e5c807364132bee744,,,"[""text_11"",""text_9""]","[0,1]",77,0,Win32,,1,,,human-judgements,0,,2025-12-02_17h19.04.604,"[2.2968000001907285,3.0928000001907208]",698832,,man,1,,"[0,0]",0,341.5225999999046
﻿0,001,,eng-binoms-human-judgements,78,692f65cc7c3feb3eec0c8c8d,"[-0.006091846298031865,-0.40596690441585637]",south,,698832,,,"[1,1]",0.171052855,5fdf1be98bcb1f7107541cb7,0,,345.515,,0,,346.0109000000954,0,0.648622069,"[0.32411750142777646,0.0054670796845712275]",342.0267000000477,west and south,0,455538,,0,,8,south and west,2025.1.1,83.33333333333333,,001,0.589291772,0,"[0,0]",,no,2025-12-02_17h18.58.886,692e60e5c807364132bee744,,,"[""text_11"",""text_9""]","[0,1]",78,0,Win32,,1,,,human-judgements,1,,2025-12-02_17h19.04.604,"[2.4540000000000077,3.236300000190738]",698832,,west,1,,"[0,0]",0,345.51509999990463
﻿0,001,,eng-binoms-human-judgements,79,692f65cc7c3feb3eec0c8c8d,"[-0.017963155587365276,-0.39659483318811506]",testament,,698832,,,"[1,1]",-4.261424859,5fdf1be98bcb1f7107541cb7,0,,350.14549999999997,,0,,350.6477999999523,0,0.001097408,"[-0.25257731958762886,-0.030771614796889644]",346.01190000009535,will and testament,-2,248768,,0,,134,testament and will,2025.1.1,83.33333333333333,,001,0.297913371,-1,"[0,0]",,no,2025-12-02_17h18.58.886,692e60e5c807364132bee744,,,"[""text_11"",""text_9""]","[0,1]",79,0,Win32,,1,,,human-judgements,0,,2025-12-02_17h19.04.604,"[3.236000000000047,3.876799999952368]",698832,,will,1,,"[0,0]",-2,350.14549999999997
﻿0,001,,eng-binoms-human-judgements,80,692f65cc7c3feb3eec0c8c8d,"[-0.0054670796845712275,-0.011715089034676664,-0.3828491096532334]",son,,698832,,,"[1,1,1]",0.131102776,5fdf1be98bcb1f7107541cb7,0,,361.50670000004766,,0,,361.9972999999523,0,0.051844861,"[-0.29381443298969073,0.3209934395501406,0.03920653610444002]",350.6487999999523,wife and son,0,118681,,0,,176,son and wife,2025.1.1,83.33333333333333,,001,0.507629998,0,"[0,0,0]",,no,2025-12-02_17h18.58.886,692e60e5c807364132bee744,,,"[""text_10"",""text_11"",""text_9""]","[0,0,1]",80,0,Win32,,1,,,human-judgements,0,,2025-12-02_17h19.04.604,"[1.9733999998569516,9.91959999990462,10.604499999999973]",698832,,wife,1,,"[0,0,0]",0,361.5067999999523
﻿0,001,,eng-binoms-human-judgements,81,692f65cc7c3feb3eec0c8c8d,"[-0.01608874134181701,-0.4028428997408037]",ammunition,,698832,,,"[1,1]",0.327341682,5fdf1be98bcb1f7107541cb7,-1,,364.2692999999523,,0,,364.77099999999996,0,0.431057564,"[0.2635114789567713,0.03358329336779522]",361.9982000000477,baggage and ammunition,0,1494,,0,,80,ammunition and baggage,2025.1.1,83.33333333333333,,001,0.33716808,0,"[0,0]",,no,2025-12-02_17h18.58.886,692e60e5c807364132bee744,,,"[""text_11"",""text_9""]","[0,1]",81,0,Win32,,1,,,human-judgements,0,,2025-12-02_17h19.04.604,"[1.4364000000953752,2.0174000000953356]",698832,,baggage,1,,"[0,0]",-2,364.26940000009535
﻿0,001,,eng-binoms-human-judgements,82,692f65cc7c3feb3eec0c8c8d,"[0.002030577297621837,-0.38847235238987815]",glass,,698832,,,"[1,1]",0.318652966,5fdf1be98bcb1f7107541cb7,0,,366.84340000009536,,0,,367.3310999999046,0,0.462912621,"[0.3222430871822282,0.014214327096268744]",364.7722999999523,steel and glass,0,41200,,0,,103,glass and steel,2025.1.1,83.33333333333333,,001,0.431606876,0,"[0,0]",,no,2025-12-02_17h18.58.886,692e60e5c807364132bee744,,,"[""text_11"",""text_9""]","[0,1]",82,0,Win32,,1,,,human-judgements,-1,,2025-12-02_17h19.04.604,"[1.2384999999999877,1.8174999999999955]",698832,,steel,1,,"[0,0]",0,366.8435999999046
﻿0,001,,eng-binoms-human-judgements,83,692f65cc7c3feb3eec0c8c8d,"[-0.021087160262417994,-0.42471104687133904]",English,,698832,,,"[1,1]",0.442413999,5fdf1be98bcb1f7107541cb7,1,,369.3329000000954,,0,,369.8254000000953,0,0.567619573,"[0.24476733650128865,0.026085636385602157]",367.33279999995233,German and English,0,148633,,0,,49,English and German,2025.1.1,83.33333333333333,,001,0.622953009,0,"[0,0]",,no,2025-12-02_17h18.58.886,692e60e5c807364132bee744,,,"[""text_10"",""text_9""]","[0,1]",83,0,Win32,,1,,,human-judgements,0,,2025-12-02_17h19.04.604,"[1.145699999809267,1.7417999999523204]",698832,,German,1,,"[0,0]",0,369.33299999999997
﻿0,001,,eng-binoms-human-judgements,84,692f65cc7c3feb3eec0c8c8d,"[-0.0035926654390229617,-0.3978444236176195]",math,,698832,,,"[1,1]",-2.358519176,5fdf1be98bcb1f7107541cb7,0,,372.10720000004767,,0,,372.60840000009534,0,0.764911034,"[-0.22883470100896205,-0.042642924086223055]",369.8265999999046,science and math,1,123868,,0,,89,math and science,2025.1.1,83.33333333333333,,001,0.55030758,1,"[0,0]",,no,2025-12-02_17h18.58.886,692e60e5c807364132bee744,,,"[""text_10"",""text_9""]","[0,1]",84,0,Win32,,1,,,human-judgements,0,,2025-12-02_17h19.04.604,"[1.3495000000000346,2.0274000000953833]",698832,,science,1,,"[0,0]",1,372.1072999999523
﻿0,001,,eng-binoms-human-judgements,85,692f65cc7c3feb3eec0c8c8d,"[-0.004842255868527413,-0.39721965700415884]",shots,,698832,,,"[1,1]",0.808445149,5fdf1be98bcb1f7107541cb7,0,,376.25440000009536,,0,,376.747,0,0.542435424,"[-0.3156825801202261,-0.028272376735297564]",372.6092000000477,shouts and shots,0,1897,,0,,36,shots and shouts,2025.1.1,83.33333333333333,,001,0.466900977,0,"[0,0]",,no,2025-12-02_17h18.58.886,692e60e5c807364132bee744,,,"[""text_10"",""text_9""]","[0,1]",85,1,Win32,,1,,,human-judgements,-1,,2025-12-02_17h19.04.604,"[2.469600000143089,3.3937000000477155]",698832,,shouts,1,,"[0,0]",0,376.2545999999046
﻿0,001,,eng-binoms-human-judgements,86,692f65cc7c3feb3eec0c8c8d,"[-0.011090322421216027,-0.38347393346927716]",anger,,698832,,,"[1,1]",1.66150142,5fdf1be98bcb1f7107541cb7,0,,379.8837999999523,,1,,380.38009999990464,0,0.718672862,"[-0.24945325770999296,-0.035145267104029994]",376.74770000004764,indignation and anger,0,13774,,0,,169,anger and indignation,2025.1.1,83.33333333333333,,001,0.664022283,0,"[0,0]",,no,2025-12-02_17h18.58.886,692e60e5c807364132bee744,,,"[""text_10"",""text_9""]","[0,1]",86,0,Win32,,1,,,human-judgements,0,,2025-12-02_17h19.04.604,"[1.4409000000953824,2.884200000047713]",698832,,indignation,1,,"[0,0]",2,379.88390000009537
﻿0,001,,eng-binoms-human-judgements,87,692f65cc7c3feb3eec0c8c8d,"[-0.011715089034676664,-0.3784755145486762]",ability,,698832,,,"[1,1]",0.140658041,5fdf1be98bcb1f7107541cb7,-1,,384.4122000000477,,0,,384.9097000000477,0,0.46424933,"[0.2760074976569822,-0.01765071507805178]",380.381,desire and ability,-1,26503,,0,,152,ability and desire,2025.1.1,83.33333333333333,,001,0.487661623,0,"[0,0]",,no,2025-12-02_17h18.58.886,692e60e5c807364132bee744,,,"[""text_10"",""text_9""]","[0,1]",87,0,Win32,,1,,,human-judgements,1,,2025-12-02_17h19.04.604,"[2.2312999999522845,3.7680999999046207]",698832,,desire,1,,"[0,0]",-1,384.4122000000477
﻿1,001,,eng-binoms-human-judgements,88,692f65cc7c3feb3eec0c8c8d,"[0.0007809868681173852,-0.39034676663542645]",husbands,,698832,,,"[1,1]",-0.652517327,5fdf1be98bcb1f7107541cb7,0,,387.811,,0,,388.31020000004764,0,0.89565556,"[-0.21571380129012419,-0.03577003371749063]",384.9107999999523,wives and husbands,-1,272233,,0,,156,husbands and wives,2025.1.1,83.33333333333333,,001,0.499003067,-1,"[0,0]",,no,2025-12-02_17h18.58.886,692e60e5c807364132bee744,,,"[""text_10"",""text_9""]","[0,1]",88,0,Win32,,1,,,human-judgements,0,,2025-12-02_17h19.04.604,"[1.9989000000953752,2.6499999999999773]",698832,,wives,1,,"[0,0]",-1,387.8110999999046
﻿-1,001,,eng-binoms-human-judgements,89,692f65cc7c3feb3eec0c8c8d,"[0.007653820034266635,-0.3634802005842901,-0.389097176205922]",command,,698832,,,"[1,1,1]",-1.239217941,5fdf1be98bcb1f7107541cb7,0,,392.72270000004767,,0,,393.22390000009534,0,0.97391757,"[0.28975327839444703,0.022336807894505623,0.001093427377430881]",388.3115999999046,control and command,0,170958,,0,,27,command and control,2025.1.1,83.33333333333333,,001,0.351962287,0,"[0,0,0]",,no,2025-12-02_17h18.58.886,692e60e5c807364132bee744,,,"[""text_11"",null,""text_9""]","[0,1]",89,0,Win32,,1,,,human-judgements,0,,2025-12-02_17h19.04.604,"[2.1310999999046203,3.540200000047662,4.1547999999522744]",698832,,control,1,,"[0,0,0]",0,392.72270000004767
﻿0,001,,eng-binoms-human-judgements,90,692f65cc7c3feb3eec0c8c8d,"[0.0032802249297094657,-0.4053420805998126]",editor,,698832,,,"[1,1]",0.837814363,5fdf1be98bcb1f7107541cb7,0,,395.1897999999523,,0,,395.6877000000477,0,0.841868322,"[0.30474859235883317,0.021087160262417994]",393.2249000000954,publisher and editor,0,125503,,1,,172,editor and publisher,2025.1.1,83.33333333333333,,001,0.800685294,0,"[0,0]",,no,2025-12-02_17h18.58.886,692e60e5c807364132bee744,,,"[""text_11"",""text_9""]","[0,1]",90,0,Win32,,1,,,human-judgements,0,,2025-12-02_17h19.04.604,"[1.0330000000000155,1.6993999998569507]",698832,,publisher,1,,"[0,0]",0,395.18990000009535
﻿0,001,,eng-binoms-human-judgements,91,692f65cc7c3feb3eec0c8c8d,"[-0.011090322421216027,-0.40784131866140466]",soil,,698832,,,"[1,1]",2.861619023,5fdf1be98bcb1f7107541cb7,1,,400.5804000000954,,-1,,401.0692999999523,0,0.453049583,"[0.21540147518597705,-0.02014995313964386]",395.6882999999523,topography and soil,2,4558,,0,,67,soil and topography,2025.1.1,83.33333333333333,,001,0.787045437,1,"[0,0]",,no,2025-12-02_17h18.58.886,692e60e5c807364132bee744,,,"[""text_11"",""text_9""]","[0,1]",91,0,Win32,,1,,,human-judgements,1,,2025-12-02_17h19.04.604,"[3.896100000143065,4.636000000000024]",698832,,topography,1,,"[0,0]",2,400.5805
﻿0,001,,eng-binoms-human-judgements,92,692f65cc7c3feb3eec0c8c8d,"[-0.026085636385602157,-0.4090909090909091]",city,,698832,,,"[1,1]",-0.656967317,5fdf1be98bcb1f7107541cb7,0,,405.9950999999046,,0,,406.49190000009537,0,0.64827672,"[-0.2888159568665066,-0.04764134300682404]",401.07,state and city,-1,184793,,1,,74,city and state,2025.1.1,83.33333333333333,,001,0.687117679,-1,"[0,0]",,no,2025-12-02_17h18.58.886,692e60e5c807364132bee744,,,"[""text_10"",""text_9""]","[0,1]",92,0,Win32,,1,,,human-judgements,0,,2025-12-02_17h19.04.604,"[3.9687000000476473,4.671900000095377]",698832,,state,1,,"[0,0]",-1,405.99520000004765
﻿0,001,,eng-binoms-human-judgements,93,692f65cc7c3feb3eec0c8c8d,"[-0.016713565157860825,-0.4034676663542643]",intonation,,698832,,,"[1,1]",-0.024585907,5fdf1be98bcb1f7107541cb7,-1,,409.9935,,0,,410.49199999999996,0,0.394712853,"[-0.216338625106168,-0.03639485753353444]",406.4925,phrasing and intonation,0,1097,,0,,17,intonation and phrasing,2025.1.1,83.33333333333333,,001,0.395520899,0,"[0,0]",,no,2025-12-02_17h18.58.886,692e60e5c807364132bee744,,,"[""text_11"",""text_9""]","[0,1]",93,0,Win32,,1,,,human-judgements,0,,2025-12-02_17h19.04.604,"[2.474700000047733,3.2482000000476887]",698832,,phrasing,1,,"[0,0]",0,409.99359999990463
﻿0,001,,eng-binoms-human-judgements,94,692f65cc7c3feb3eec0c8c8d,"[0.003904991543170103,-0.43095911342402765,-0.42033739456419866]",ink,,698832,,,"[1,1,1]",-2.540502241,5fdf1be98bcb1f7107541cb7,0,,413.77049999999997,,0,,414.269,0,0.472260619,"[0.32349273481431584,0.030459231490159326,0.02546081256955834]",410.49340000009533,paper and ink,1,58599,,0,,19,ink and paper,2025.1.1,83.33333333333333,,001,0.464057006,1,"[0,0,0]",,no,2025-12-02_17h18.58.886,692e60e5c807364132bee744,,,"[""text_11"",null,""text_9""]","[0,1]",94,0,Win32,,1,,,human-judgements,-1,,2025-12-02_17h19.04.604,"[1.4318999998569097,2.209000000000003,3.0190000000000055]",698832,,paper,1,,"[0,0,0]",1,413.7705999999046
﻿0,001,,eng-binoms-human-judgements,95,692f65cc7c3feb3eec0c8c8d,"[0.013277062770911435,-0.3922211808809747]",food,,698832,,,"[1,1]",2.348214144,5fdf1be98bcb1f7107541cb7,1,,417.094,,0,,417.5942000000477,0,0.876560924,"[-0.31693217054973055,-0.03264602904243791]",414.26990000009533,shelter and food,1,147749,,0,,54,food and shelter,2025.1.1,83.33333333333333,,001,0.759624604,1,"[0,0]",,no,2025-12-02_17h18.58.886,692e60e5c807364132bee744,,,"[""text_10"",""text_9""]","[0,1]",95,0,Win32,,1,,,human-judgements,0,,2025-12-02_17h19.04.604,"[1.9223000001907167,2.5713000001907176]",698832,,shelter,1,,"[0,0]",1,417.09409999990464
﻿0,001,,eng-binoms-human-judgements,96,692f65cc7c3feb3eec0c8c8d,"[-0.022336807894505623,-0.3928460046970185]",arches,,698832,,,"[1,1]",0.525036212,5fdf1be98bcb1f7107541cb7,-1,,421.3562999999523,,0,,421.8477999999523,0,0.227858514,"[-0.2881911902530459,-0.07013431395340324]",417.5949000000954,piers and arches,-1,3647,,0,,96,arches and piers,2025.1.1,83.33333333333333,,001,0.308712643,-1,"[0,0]",,no,2025-12-02_17h18.58.886,692e60e5c807364132bee744,,,"[""text_11"",""text_9""]","[0,1]",96,0,Win32,,1,,,human-judgements,0,,2025-12-02_17h19.04.604,"[2.6376000001430384,3.5074000000954015]",698832,,piers,1,,"[0,0]",-1,421.3565
﻿0,001,,eng-binoms-human-judgements,97,692f65cc7c3feb3eec0c8c8d,"[0.0007809868681173852,-0.3784755145486762]",firepower,,698832,,,"[1,1]",-4.528263686,5fdf1be98bcb1f7107541cb7,0,,424.37109999990463,,0,,424.8697999999523,0,0.198818898,"[0.2991253496221884,0.03920653610444002]",421.8482999999523,speed and firepower,-1,1016,,0,,32,firepower and speed,2025.1.1,83.33333333333333,,001,0.274411974,-1,"[0,0]",,no,2025-12-02_17h18.58.886,692e60e5c807364132bee744,,,"[""text_11"",""text_9""]","[0,1]",97,1,Win32,,1,,,human-judgements,0,,2025-12-02_17h19.04.604,"[1.6111000001430398,2.272900000095376]",698832,,speed,1,,"[0,0]",-2,424.3712000000477
﻿0,001,,eng-binoms-human-judgements,98,692f65cc7c3feb3eec0c8c8d,"[0.02327395781469658,-0.4003436616792116]",cysts,,698832,,,"[1,1]",-1.416321957,5fdf1be98bcb1f7107541cb7,-1,,427.2185999999046,,0,,427.71409999990465,0,0.496948337,"[0.3072477732178421,0.030459231490159326]",424.8707000000477,tumors and cysts,1,11633,,0,,26,cysts and tumors,2025.1.1,83.33333333333333,,001,0.444446445,1,"[0,0]",,no,2025-12-02_17h18.58.886,692e60e5c807364132bee744,,,"[""text_10"",""text_9""]","[0,1]",98,-1,Win32,,1,,,human-judgements,0,,2025-12-02_17h19.04.604,"[1.2454999999999927,2.0973999998569184]",698832,,tumors,1,,"[0,0]",1,427.21870000004765
﻿0,001,,eng-binoms-human-judgements,99,692f65cc7c3feb3eec0c8c8d,"[-0.0035926654390229617,-0.4072164948453608]",earth,,698832,,,"[1,1]",1.093071748,5fdf1be98bcb1f7107541cb7,0,,430.29140000009534,,0,,430.79220000004767,0,0.784350796,"[0.36910344332093487,0.03358329336779522]",427.7149000000953,sky and earth,0,131176,,0,,22,earth and sky,2025.1.1,83.33333333333333,,001,0.613281023,0,"[0,0]",,no,2025-12-02_17h18.58.886,692e60e5c807364132bee744,,,"[""text_11"",""text_9""]","[0,1]",99,0,Win32,,1,,,human-judgements,1,,2025-12-02_17h19.04.604,"[1.4618999998569393,2.3222999999523495]",698832,,sky,1,,"[0,0]",0,430.2915
﻿0,001,,eng-binoms-human-judgements,100,692f65cc7c3feb3eec0c8c8d,"[0.006404229604762184,-0.41283973758200565]",neighborhood,,698832,,,"[1,1]",-2.55823292,5fdf1be98bcb1f7107541cb7,0,,433.9675999999046,,0,,434.47040000009537,0,0.37829772,"[0.2578882362201265,0.035457707613343485]",430.7932999999523,school and neighborhood,0,8377,,0,,56,neighborhood and school,2025.1.1,83.33333333333333,,001,0.365542432,0,"[0,0]",,no,2025-12-02_17h18.58.886,692e60e5c807364132bee744,,,"[""text_11"",""text_9""]","[0,1]",100,0,Win32,,1,,,human-judgements,0,,2025-12-02_17h19.04.604,"[2.157100000143089,2.9212000000476905]",698832,,school,1,,"[0,0]",-2,433.9677999999523
﻿0,001,,eng-binoms-human-judgements,101,692f65cc7c3feb3eec0c8c8d,"[-0.020462393648957355,-0.3797251049781806]",order,,698832,,,"[1,1]",1.080154161,5fdf1be98bcb1f7107541cb7,0,,439.0395999999046,,0,,439.53409999990464,0,0.386506575,"[0.27100913593896436,0.03733212185889175]",434.4710999999046,truth and order,-1,3498,,0,,186,order and truth,2025.1.1,83.33333333333333,,001,0.423578527,-1,"[0,0]",,no,2025-12-02_17h18.58.886,692e60e5c807364132bee744,,,"[""text_11"",""text_9""]","[0,1]",101,0,Win32,,1,,,human-judgements,0,,2025-12-02_17h19.04.604,"[3.6560999999046544,4.3125999999046485]",698832,,truth,1,,"[0,0]",-1,439.0397000000477
﻿0,001,,eng-binoms-human-judgements,102,692f65cc7c3feb3eec0c8c8d,"[-0.022336807894505623,-0.37410186224153585]",adventure,,698832,,,"[1,1]",-0.012786548,5fdf1be98bcb1f7107541cb7,0,,441.97090000009536,,0,,442.47209999990463,0,0.375613206,"[0.23851921274601687,0.022336807894505623]",439.5347999999523,romance and adventure,0,22627,,0,,65,adventure and romance,2025.1.1,83.33333333333333,,001,0.503725667,0,"[0,0]",,no,2025-12-02_17h18.58.886,692e60e5c807364132bee744,,,"[""text_11"",""text_9""]","[0,1]",102,0,Win32,,1,,,human-judgements,0,,2025-12-02_17h19.04.604,"[1.4800000000000182,2.1779999999999973]",698832,,romance,1,,"[0,0]",0,441.971
﻿0,001,,eng-binoms-human-judgements,103,692f65cc7c3feb3eec0c8c8d,"[-0.004217432052483599,-0.4047173139863519]",honey,,698832,,,"[1,1]",-1.142214853,5fdf1be98bcb1f7107541cb7,-1,,444.675,,0,,445.17449999999997,0,0.056359032,"[0.3647298482163777,0.032958469551751406]",442.474,milk and honey,-1,113327,,0,,165,honey and milk,2025.1.1,83.33333333333333,,001,0.271479828,-1,"[0,0]",,no,2025-12-02_17h18.58.886,692e60e5c807364132bee744,,,"[""text_11"",""text_9""]","[0,1]",103,0,Win32,,1,,,human-judgements,0,,2025-12-02_17h19.04.604,"[1.331299999952364,1.9475000000000477]",698832,,milk,1,,"[0,0]",-1,444.67520000004765
﻿0,001,,eng-binoms-human-judgements,104,692f65cc7c3feb3eec0c8c8d,"[-0.0054670796845712275,-0.40846614247744845]",fear,,698832,,,"[1,1]",-1.076654681,5fdf1be98bcb1f7107541cb7,0,,447.63440000009535,,0,,448.12540000009534,0,0.641555158,"[0.3159950778321228,-0.009528234279814902]",445.1755999999046,want and fear,0,9491,,0,,160,fear and want,2025.1.1,83.33333333333333,,001,0.416484785,0,"[0,0]",,no,2025-12-02_17h18.58.886,692e60e5c807364132bee744,,,"[""text_10"",""text_9""]","[0,1]",104,1,Win32,,1,,,human-judgements,-1,,2025-12-02_17h19.04.604,"[1.5836999998092551,2.205299999952274]",698832,,want,1,,"[0,0]",0,447.63440000009535
﻿0,001,,eng-binoms-human-judgements,105,692f65cc7c3feb3eec0c8c8d,"[-0.029209641060654875,-0.0023430178069353325,-0.3984692474336633]",schools,,698832,,,"[1,1,1]",4.247925511,5fdf1be98bcb1f7107541cb7,1,,451.30020000004765,,0,,451.794,0,0.40808265,"[-0.165104616660321,-0.1994688968962336,-0.0207747197531045]",448.127,synagogues and schools,0,3291,,0,,147,schools and synagogues,2025.1.1,83.33333333333333,,001,0.769443991,0,"[0,0,0]",,no,2025-12-02_17h18.58.886,692e60e5c807364132bee744,,,"[null,""text_10"",""text_9""]","[0,1]",105,0,Win32,,1,,,human-judgements,0,,2025-12-02_17h19.04.604,"[1.472300000190728,2.087400000095329,2.9174000000953697]",698832,,synagogues,1,,"[0,0,0]",2,451.3002999999523
﻿-1,001,,eng-binoms-human-judgements,106,692f65cc7c3feb3eec0c8c8d,"[0.01765071507805178,-0.3872227619603737]",bones,,698832,,,"[1,1]",2.505134591,5fdf1be98bcb1f7107541cb7,0,,454.46370000004765,,1,,454.9667000000477,0,0.393354825,"[-0.2588253289377343,-0.029522024367385193]",451.79540000009536,skulls and bones,0,19232,,0,,78,bones and skulls,2025.1.1,83.33333333333333,,001,0.497668306,0,"[0,0]",,no,2025-12-02_17h18.58.886,692e60e5c807364132bee744,,,"[""text_11"",""text_9""]","[0,1]",106,0,Win32,,1,,,human-judgements,0,,2025-12-02_17h19.04.604,"[1.5837999999523618,2.415399999856959]",698832,,skulls,1,,"[0,0]",0,454.4637999999523
﻿0,001,,eng-binoms-human-judgements,107,692f65cc7c3feb3eec0c8c8d,"[-0.007341493930119494,-0.39659483318811506]",gas,,698832,,,"[1,1]",-0.310324221,5fdf1be98bcb1f7107541cb7,0,,457.3112999999523,,0,,457.8075999999046,0,0.085447759,"[0.31287101595448685,0.041080950349988286]",454.9675,oil and gas,0,1040905,,0,,41,gas and oil,2025.1.1,83.33333333333333,,001,0.414941423,0,"[0,0]",,no,2025-12-02_17h18.58.886,692e60e5c807364132bee744,,,"[""text_10"",""text_9""]","[0,1]",107,0,Win32,,1,,,human-judgements,-1,,2025-12-02_17h19.04.604,"[1.4278000001907571,2.084100000143053]",698832,,oil,1,,"[0,0]",0,457.3114000000954
﻿0,001,,eng-binoms-human-judgements,108,692f65cc7c3feb3eec0c8c8d,"[-0.002967841622979147,-0.3759762764870841]",name,,698832,,,"[1,1]",-0.331933601,5fdf1be98bcb1f7107541cb7,1,,462.0215,,0,,462.5165999999046,0,0.93786295,"[-0.2950640234191952,-0.05388940955951265]",457.8087999999523,year and name,0,3444,,0,,153,name and year,2025.1.1,83.33333333333333,,001,0.603015244,0,"[0,0]",,no,2025-12-02_17h18.58.886,692e60e5c807364132bee744,,,"[""text_10"",""text_9""]","[0,1]",108,0,Win32,,1,,,human-judgements,0,,2025-12-02_17h19.04.604,"[3.3054000000954034,3.958800000190763]",698832,,year,1,,"[0,0]",0,462.0215999999046
﻿0,001,,eng-binoms-human-judgements,109,692f65cc7c3feb3eec0c8c8d,"[0.00015616305207357076,-0.3934708285130623]",money,,698832,,,"[1,1]",0.741305725,5fdf1be98bcb1f7107541cb7,0,,464.707,,0,,465.20709999990464,0,0.367444644,"[0.30412371134020616,0.03795688847235239]",462.517,numbers and money,0,1671,,0,,129,money and numbers,2025.1.1,83.33333333333333,,001,0.442895619,0,"[0,0]",,no,2025-12-02_17h18.58.886,692e60e5c807364132bee744,,,"[""text_11"",""text_9""]","[0,1]",109,0,Win32,,1,,,human-judgements,-1,,2025-12-02_17h19.04.604,"[1.1992000000476537,1.934799999952304]",698832,,numbers,1,,"[0,0]",0,464.70709999990464
﻿0,001,,eng-binoms-human-judgements,110,692f65cc7c3feb3eec0c8c8d,"[-0.008591084359623946,-0.38034992879422447]",attitude,,698832,,,"[1,1]",-1.250579961,5fdf1be98bcb1f7107541cb7,0,,470.611,,0,,471.10340000009535,0,0.442053489,"[0.197906980362582,-0.0026554011136656515]",465.20799999999997,experience and attitude,2,3253,,0,,91,attitude and experience,2025.1.1,83.33333333333333,,001,0.419540718,1,"[0,0]",,no,2025-12-02_17h18.58.886,692e60e5c807364132bee744,,,"[""text_11"",""text_9""]","[0,1]",110,0,Win32,,1,,,human-judgements,-1,,2025-12-02_17h19.04.604,"[4.299799999952313,5.152299999952334]",698832,,experience,1,,"[0,0]",0,470.61109999990464
﻿0,001,,eng-binoms-human-judgements,111,692f65cc7c3feb3eec0c8c8d,"[-0.02796005063115042,0.0014058106841611997,-0.39097159045147023]",information,,698832,,,"[1,1,1]",0.689440698,5fdf1be98bcb1f7107541cb7,0,,474.9192000000477,,0,,475.4149000000954,0,0.488486747,"[0.2366447985004686,0.20852858481724462,0.01608874134181701]",471.1045999999046,material and information,1,17241,,0,,193,information and material,2025.1.1,83.33333333333333,,001,0.364540587,0,"[0,0,0]",,no,2025-12-02_17h18.58.886,692e60e5c807364132bee744,,,"[null,""text_10"",""text_9""]","[0,1]",111,0,Win32,,1,,,human-judgements,-1,,2025-12-02_17h19.04.604,"[1.8065999999046767,2.3472000000476783,3.554599999904667]",698832,,material,1,,"[0,0,0]",-1,474.9192000000477
﻿0,001,,eng-binoms-human-judgements,112,692f65cc7c3feb3eec0c8c8d,"[-0.01358950328022493,-0.40596690441585637]",agencies,,698832,,,"[1,1]",-0.837265731,5fdf1be98bcb1f7107541cb7,0,,479.13890000009536,,0,,479.63759999990464,0,0.530313624,"[0.19165885660731022,0.032958469551751406]",475.41540000009536,individuals and agencies,0,20024,,0,,92,agencies and individuals,2025.1.1,83.33333333333333,,001,0.472329242,0,"[0,0]",,no,2025-12-02_17h18.58.886,692e60e5c807364132bee744,,,"[""text_11"",""text_9""]","[0,1]",112,0,Win32,,1,,,human-judgements,-1,,2025-12-02_17h19.04.604,"[2.8413999998569466,3.471499999999992]",698832,,individuals,1,,"[0,0]",2,479.139
﻿-1,001,,eng-binoms-human-judgements,113,692f65cc7c3feb3eec0c8c8d,"[0.01077788191190253,-0.3872227619603737]",pitch,,698832,,,"[1,1]",-1.796795148,5fdf1be98bcb1f7107541cb7,0,,482.02909999990464,,0,,482.53249999999997,0,0.665253838,"[0.31224624934102624,0.02171198407846181]",479.63890000009536,volume and pitch,1,10617,,0,,81,pitch and volume,2025.1.1,83.33333333333333,,001,0.442923092,1,"[0,0]",,no,2025-12-02_17h18.58.886,692e60e5c807364132bee744,,,"[""text_10"",""text_9""]","[0,1]",113,0,Win32,,1,,,human-judgements,0,,2025-12-02_17h19.04.604,"[1.396000000000015,2.1367000000477105]",698832,,volume,1,,"[0,0]",1,482.0292000000477
﻿0,001,,eng-binoms-human-judgements,114,692f65cc7c3feb3eec0c8c8d,"[-0.012964736666764292,-0.4003436616792116]",grapefruit,,698832,,,"[1,1]",-0.95856315,5fdf1be98bcb1f7107541cb7,-1,,485.1775,,0,,485.675,0,0.189861989,"[0.28350515463917525,0.0554514404983306]",482.5332999999523,oranges and grapefruit,2,7753,,0,,45,grapefruit and oranges,2025.1.1,83.33333333333333,,001,0.435467688,1,"[0,0]",,no,2025-12-02_17h18.58.886,692e60e5c807364132bee744,,,"[""text_11"",""text_9""]","[0,1]",114,0,Win32,,1,,,human-judgements,0,,2025-12-02_17h19.04.604,"[1.6417999999523545,2.378399999856981]",698832,,oranges,1,,"[0,0]",1,485.1775
﻿0,001,,eng-binoms-human-judgements,115,692f65cc7c3feb3eec0c8c8d,"[-0.007341493930119494,-0.4097157329069529]",attention,,698832,,,"[1,1]",4.469243317,5fdf1be98bcb1f7107541cb7,0,,491.3510999999046,,0,,491.8485,0,0.392089844,"[-0.24445483878939198,-0.027022786305793113]",485.6757999999523,civility and attention,1,2048,,1,,183,attention and civility,2025.1.1,83.33333333333333,,001,0.852468847,0,"[0,0]",,no,2025-12-02_17h18.58.886,692e60e5c807364132bee744,,,"[""text_11"",""text_9""]","[0,1]",115,0,Win32,,1,,,human-judgements,0,,2025-12-02_17h19.04.604,"[4.601599999904636,5.424500000000023]",698832,,civility,1,,"[0,0]",1,491.3512000000477
﻿0,001,,eng-binoms-human-judgements,116,692f65cc7c3feb3eec0c8c8d,"[-0.023586398324010074,-0.4053420805998126]",needle,,698832,,,"[1,1]",0.035063983,5fdf1be98bcb1f7107541cb7,1,,497.7725,,0,,498.2760999999046,0,0.934103092,"[0.2666354264292409,0.007341493930119494]",491.84999999999997,thread and needle,-1,64176,,0,,40,needle and thread,2025.1.1,83.33333333333333,,001,0.504059703,-1,"[0,0]",,no,2025-12-02_17h18.58.886,692e60e5c807364132bee744,,,"[""text_10"",""text_9""]","[0,1]",116,0,Win32,,1,,,human-judgements,0,,2025-12-02_17h19.04.604,"[4.9637999999523,5.670200000047657]",698832,,thread,1,,"[0,0]",-1,497.7725
﻿0,001,,eng-binoms-human-judgements,117,692f65cc7c3feb3eec0c8c8d,"[-0.007341493930119494,-0.3928460046970185]",berlin,,698832,,,"[1,1]",1.973825782,5fdf1be98bcb1f7107541cb7,1,,500.88759999990464,,0,,501.3857000000477,0,0.611458835,"[0.23477038425492033,0.011715089034676664]",498.2772999999523,frankfurt and berlin,1,4154,,0,,83,berlin and frankfurt,2025.1.1,83.33333333333333,,001,0.752125767,1,"[0,0]",,no,2025-12-02_17h18.58.886,692e60e5c807364132bee744,,,"[""text_10"",""text_9""]","[0,1]",117,0,Win32,,1,,,human-judgements,0,,2025-12-02_17h19.04.604,"[1.634200000047656,2.3517000000476855]",698832,,frankfurt,1,,"[0,0]",1,500.8877000000477
﻿0,001,,eng-binoms-human-judgements,118,692f65cc7c3feb3eec0c8c8d,"[-0.011715089034676664,-0.3759762764870841]",ice,,698832,,,"[1,1]",-2.073400202,5fdf1be98bcb1f7107541cb7,0,,504.0954000000953,,0,,504.5952999999523,0,0.516896257,"[-0.33005309886986,-0.02327395781469658]",501.3872999999523,water and ice,1,54953,,0,,62,ice and water,2025.1.1,83.33333333333333,,001,0.636231082,1,"[0,0]",,no,2025-12-02_17h18.58.886,692e60e5c807364132bee744,,,"[""text_11"",""text_9""]","[0,1]",118,0,Win32,,1,,,human-judgements,1,,2025-12-02_17h19.04.604,"[1.559799999952304,2.4532000000477296]",698832,,water,1,,"[0,0]",1,504.0955
﻿0,001,,eng-binoms-human-judgements,119,692f65cc7c3feb3eec0c8c8d,"[-0.017963155587365276,-0.39097159045147023]",counterpoint,,698832,,,"[1,1]",-2.491354754,5fdf1be98bcb1f7107541cb7,-1,,511.98179999995233,,1,,512.4834999999999,0,0.124811927,"[0.17666354264292408,0.05170261200723407]",504.5960999999046,harmony and counterpoint,2,14622,,0,,155,counterpoint and harmony,2025.1.1,83.33333333333333,,001,0.407016996,1,"[0,0]",,no,2025-12-02_17h18.58.886,692e60e5c807364132bee744,,,"[""text_11"",""text_9""]","[0,1]",119,0,Win32,,1,,,human-judgements,0,,2025-12-02_17h19.04.604,"[4.101599999904749,7.13420000004777]",698832,,harmony,1,,"[0,0]",0,511.982
﻿0,001,,eng-binoms-human-judgements,120,692f65cc7c3feb3eec0c8c8d,"[-0.01608874134181701,-0.4097157329069529]",disdain,,698832,,,"[1,1]",-1.083152932,5fdf1be98bcb1f7107541cb7,0,,517.5882999999523,,0,,518.0897000000476,0,0.32683791,"[0.18041237113402062,0.007966260543580132]",512.485,indifference and disdain,2,1129,,0,,164,disdain and indifference,2025.1.1,83.33333333333333,,001,0.518250521,1,"[0,0]",,no,2025-12-02_17h18.58.886,692e60e5c807364132bee744,,,"[""text_11"",""text_9""]","[0,1]",120,1,Win32,,1,,,human-judgements,-1,,2025-12-02_17h19.04.604,"[4.100000000000023,4.842200000047683]",698832,,indifference,1,,"[0,0]",2,517.5885
﻿0,001,,eng-binoms-human-judgements,121,692f65cc7c3feb3eec0c8c8d,"[-0.011090322421216027,-0.0067166701140756796,-0.4090909090909091]",eggs,,698832,,,"[1,1,1]",1.310589937,5fdf1be98bcb1f7107541cb7,0,,521.4637000000477,,0,,521.9595999999046,0,0.182907921,"[0.23914409376464385,0.29162769263999533,0.03858171228839621]",518.0907999999523,ham and eggs,0,59981,,0,,144,eggs and ham,2025.1.1,83.33333333333333,,001,0.539556556,0,"[0,0,0]",,no,2025-12-02_17h18.58.886,692e60e5c807364132bee744,,,"[null,""text_10"",""text_9""]","[0,1]",121,0,Win32,,1,,,human-judgements,0,,2025-12-02_17h19.04.604,"[1.7457999999522826,2.4836999998092324,3.1196999998093133]",698832,,ham,1,,"[0,0,0]",0,521.4637999999524
﻿0,001,,eng-binoms-human-judgements,122,692f65cc7c3feb3eec0c8c8d,"[-0.011715089034676664,-0.3934708285130623]",history,,698832,,,"[1,1]",1.677595029,5fdf1be98bcb1f7107541cb7,0,,526.5307000000477,,0,,527.0264000000954,0,0.670672389,"[-0.25195249577158507,-0.01765071507805178]",521.96,identity and history,0,13980,,1,,131,history and identity,2025.1.1,83.33333333333333,,001,0.81483563,0,"[0,0]",,no,2025-12-02_17h18.58.886,692e60e5c807364132bee744,,,"[""text_10"",""text_9""]","[0,1]",122,0,Win32,,1,,,human-judgements,0,,2025-12-02_17h19.04.604,"[3.6262000000477883,4.3152999999523445]",698832,,identity,1,,"[0,0]",0,526.5307999999523
﻿0,001,,eng-binoms-human-judgements,123,692f65cc7c3feb3eec0c8c8d,"[0.0026554011136656515,-0.37910028116213684]",months,,698832,,,"[1,1]",-1.537043183,5fdf1be98bcb1f7107541cb7,0,,529.9579000000954,,0,,530.4537999999523,0,0.892861403,"[-0.2419556007277999,-0.037019681349578254]",527.0272000000476,years and months,0,125753,,1,,105,months and years,2025.1.1,83.33333333333333,,001,0.756353118,0,"[0,0]",,no,2025-12-02_17h18.58.886,692e60e5c807364132bee744,,,"[""text_10"",""text_9""]","[0,1]",123,0,Win32,,1,,,human-judgements,0,,2025-12-02_17h19.04.604,"[1.925400000095351,2.6767000000476173]",698832,,years,1,,"[0,0]",0,529.958
﻿0,001,,eng-binoms-human-judgements,124,692f65cc7c3feb3eec0c8c8d,"[0.0026554011136656515,-0.39034676663542645]",brains,,698832,,,"[1,1]",-0.762672809,5fdf1be98bcb1f7107541cb7,0,,533.5387000000477,,0,,534.036,0,0.69044289,"[0.3022492970946579,0.032958469551751406]",530.4545999999046,talent and brains,1,2145,,0,,142,brains and talent,2025.1.1,83.33333333333333,,001,0.592701651,1,"[0,0]",,no,2025-12-02_17h18.58.886,692e60e5c807364132bee744,,,"[""text_11"",""text_9""]","[0,1]",124,0,Win32,,1,,,human-judgements,0,,2025-12-02_17h19.04.604,"[1.9306999998092351,2.829099999904656]",698832,,talent,1,,"[0,0]",1,533.5389000000954
﻿0,001,,eng-binoms-human-judgements,125,692f65cc7c3feb3eec0c8c8d,"[0.003904991543170103,-0.3815995192237289]",expense,,698832,,,"[1,1]",-3.610925808,5fdf1be98bcb1f7107541cb7,0,,536.9675,,0,,537.4682000000477,0,0.09267277,"[-0.2425804245438437,0.010465498605172211]",534.037,time and expense,0,78761,,0,,47,expense and time,2025.1.1,83.33333333333333,,001,0.487627162,0,"[0,0]",,no,2025-12-02_17h18.58.886,692e60e5c807364132bee744,,,"[""text_11"",""text_9""]","[0,1]",125,0,Win32,,1,,,human-judgements,1,,2025-12-02_17h19.04.604,"[1.9904999999999973,2.6757000000477547]",698832,,time,1,,"[0,0]",0,536.9675999999046
﻿0,001,,eng-binoms-human-judgements,126,692f65cc7c3feb3eec0c8c8d,"[-0.011090322421216027,-0.4009684854952554]",liquids,,698832,,,"[1,1]",0.97560363,5fdf1be98bcb1f7107541cb7,1,,540.5607000000476,,0,,541.0570999999046,0,0.432806324,"[0.3316151584099695,-0.01640112464854733]",537.4697999999523,powders and liquids,0,2530,,0,,116,liquids and powders,2025.1.1,83.33333333333333,,001,0.558185315,0,"[0,0]",,no,2025-12-02_17h18.58.886,692e60e5c807364132bee744,,,"[""text_11"",""text_9""]","[0,1]",126,0,Win32,,1,,,human-judgements,-1,,2025-12-02_17h19.04.604,"[1.946399999856908,2.833799999952248]",698832,,powders,1,,"[0,0]",0,540.5609000000953
﻿0,001,,eng-binoms-human-judgements,127,692f65cc7c3feb3eec0c8c8d,"[-0.14979697659178773,-0.015463917525773196,-0.3872227619603737]",anger,,698832,,,"[1,1,1]",-1.078798158,5fdf1be98bcb1f7107541cb7,0,,545.8805999999046,,0,,546.3782000000476,0,0.414184301,"[0.02171198407846181,0.3166198444455834,0.01358950328022493]",541.058,fear and anger,-1,88323,,0,,121,anger and fear,2025.1.1,83.33333333333333,,001,0.388667326,-1,"[0,0,0]",,no,2025-12-02_17h18.58.886,692e60e5c807364132bee744,,,"[null,""text_11"",""text_9""]","[0,1]",127,1,Win32,,1,,,human-judgements,0,,2025-12-02_17h19.04.604,"[2.0899000000953265,3.9047999999522744,4.567000000000007]",698832,,fear,1,,"[0,0,0]",-1,545.8807999999523
﻿0,001,,eng-binoms-human-judgements,128,692f65cc7c3feb3eec0c8c8d,"[-0.004217432052483599,-0.4147141518275539]",diamonds,,698832,,,"[1,1]",1.869804976,5fdf1be98bcb1f7107541cb7,1,,549.7185,,0,,550.2182000000477,0,0.60896,"[0.20727905159032334,0.017338331771321464]",546.3794000000953,rubies and diamonds,0,18750,,0,,64,diamonds and rubies,2025.1.1,83.33333333333333,,001,0.658596689,0,"[0,0]",,no,2025-12-02_17h18.58.886,692e60e5c807364132bee744,,,"[""text_11"",""text_9""]","[0,1]",128,0,Win32,,1,,,human-judgements,0,,2025-12-02_17h19.04.604,"[2.289100000143094,3.0877000000476755]",698832,,rubies,1,,"[0,0]",0,549.7185999999047
﻿0,001,,eng-binoms-human-judgements,129,692f65cc7c3feb3eec0c8c8d,"[0.017025891262007965,-0.3959700093720712]",artist,,698832,,,"[1,1]",1.007979603,5fdf1be98bcb1f7107541cb7,1,,553.3885999999046,,0,,553.8914000000954,0,0.80895312,"[-0.29631361384869964,-0.04326769069968369]",550.2190999999046,critic and artist,0,5674,,1,,55,artist and critic,2025.1.1,83.33333333333333,,001,0.863755684,0,"[0,0]",,no,2025-12-02_17h18.58.886,692e60e5c807364132bee744,,,"[""text_10"",""text_9""]","[0,1]",129,0,Win32,,1,,,human-judgements,0,,2025-12-02_17h19.04.604,"[2.122100000143064,2.917600000143011]",698832,,critic,1,,"[0,0]",0,553.3887000000477
﻿0,001,,eng-binoms-human-judgements,130,692f65cc7c3feb3eec0c8c8d,"[0.00827864385031045,-0.3703530337504393,-0.41721338988914597]",bombers,,698832,,,"[1,1,1]",-0.498153087,5fdf1be98bcb1f7107541cb7,0,,558.6007000000477,,0,,559.1034000000953,0,0.388141239,"[0.25851300283358714,-0.018275538894095594,-0.04326769069968369]",553.8919000000953,missiles and bombers,0,7505,,0,,124,bombers and missiles,2025.1.1,83.33333333333333,,001,0.490555031,0,"[0,0,0]",,no,2025-12-02_17h18.58.886,692e60e5c807364132bee744,,,"[""text_11"",null,""text_9""]","[0,1]",130,0,Win32,,1,,,human-judgements,0,,2025-12-02_17h19.04.604,"[2.95150000000001,3.6392999999523,4.454199999809248]",698832,,missiles,1,,"[0,0,0]",0,558.6009000000954
﻿-1,001,,eng-binoms-human-judgements,131,692f65cc7c3feb3eec0c8c8d,"[-0.0035926654390229617,-0.0023430178069353325,-0.389097176205922]",mamma,,698832,,,"[1,1,1]",-1.00988105,5fdf1be98bcb1f7107541cb7,1,,562.9489000000954,,0,,563.4479000000954,0,0.265560438,"[-0.2338331771321462,0.23227120339591142,0.03670729804284794]",559.1044000000953,papa and mamma,0,30494,,0,,145,mamma and papa,2025.1.1,83.33333333333333,,001,0.463130941,0,"[0,0,0]",,no,2025-12-02_17h18.58.886,692e60e5c807364132bee744,,,"[""text_11"",""text_10"",""text_9""]","[0,0,1]",131,0,Win32,,1,,,human-judgements,0,,2025-12-02_17h19.04.604,"[1.74870000004762,2.9195999999045625,3.5947999999522153]",698832,,papa,1,,"[0,0,0]",0,562.949
﻿0,001,,eng-binoms-human-judgements,132,692f65cc7c3feb3eec0c8c8d,"[0.005779405788718369,-0.39097159045147023]",feet,,698832,,,"[1,1]",-0.043844078,5fdf1be98bcb1f7107541cb7,0,,565.7367999999523,,0,,566.2300999999046,0,0.117742991,"[-0.2769447047797563,-0.03639485753353444]",563.4487000000477,hands and feet,0,574548,,0,,6,feet and hands,2025.1.1,83.33333333333333,,001,0.421980679,0,"[0,0]",,no,2025-12-02_17h18.58.886,692e60e5c807364132bee744,,,"[""text_11"",""text_9""]","[0,1]",132,0,Win32,,1,,,human-judgements,-1,,2025-12-02_17h19.04.604,"[1.3002000000476528,2.0324999999999136]",698832,,hands,1,,"[0,0]",0,565.7369000000954
﻿0,001,,eng-binoms-human-judgements,133,692f65cc7c3feb3eec0c8c8d,"[-0.0054670796845712275,-0.4028428997408037]",charts,,698832,,,"[1,1]",-0.574191021,5fdf1be98bcb1f7107541cb7,-1,,569.1662999999523,,0,,569.6765999999046,0,0.240123783,"[-0.2631989812448747,-0.05576382380506092]",566.2307000000477,maps and charts,0,51057,,0,,118,charts and maps,2025.1.1,83.33333333333333,,001,0.381349555,0,"[0,0]",,no,2025-12-02_17h18.58.886,692e60e5c807364132bee744,,,"[""text_10"",""text_9""]","[0,1]",133,0,Win32,,1,,,human-judgements,0,,2025-12-02_17h19.04.604,"[1.8568999998568643,2.676399999856926]",698832,,maps,1,,"[0,0]",0,569.1662999999523
﻿0,001,,eng-binoms-human-judgements,134,692f65cc7c3feb3eec0c8c8d,"[-0.020462393648957355,-0.3928460046970185]",malaria,,698832,,,"[1,1]",0.2595695,5fdf1be98bcb1f7107541cb7,0,,572.9419000000953,,0,,573.441,0,0.642095358,"[0.2422680412371134,0.01608874134181701]",569.6777999999523,typhoid and malaria,-1,3188,,0,,94,malaria and typhoid,2025.1.1,83.33333333333333,,001,0.518778839,0,"[0,0]",,no,2025-12-02_17h18.58.886,692e60e5c807364132bee744,,,"[""text_11"",""text_9""]","[0,1]",134,0,Win32,,1,,,human-judgements,0,,2025-12-02_17h19.04.604,"[2.280700000047659,3.0037000000476155]",698832,,typhoid,1,,"[0,0]",-1,572.9420999999046
﻿1,001,,eng-binoms-human-judgements,135,692f65cc7c3feb3eec0c8c8d,"[-0.011715089034676664,-0.40596690441585637]",muskets,,698832,,,"[1,1]",-1.177591049,5fdf1be98bcb1f7107541cb7,0,,576.1287999999523,,0,,576.6219000000954,0,0.401443096,"[0.2878788641488988,0.02296157450796626]",573.4417000000477,swords and muskets,-1,3049,,0,,50,muskets and swords,2025.1.1,83.33333333333333,,001,0.484758391,-1,"[0,0]",,no,2025-12-02_17h18.58.886,692e60e5c807364132bee744,,,"[""text_10"",""text_9""]","[0,1]",135,0,Win32,,1,,,human-judgements,0,,2025-12-02_17h19.04.604,"[1.6808999998569334,2.433499999999981]",698832,,swords,1,,"[0,0]",-1,576.1289000000953
﻿0,001,,eng-binoms-human-judgements,136,692f65cc7c3feb3eec0c8c8d,"[0.005154639175257732,-0.41034055672299674]",beech,,698832,,,"[1,1]",-0.267702619,5fdf1be98bcb1f7107541cb7,0,,581.4085999999046,,0,,581.9087000000477,0,0.607512248,"[0.281630740393627,-0.005779405788718369]",576.6232000000476,elm and beech,0,1837,,0,,9,beech and elm,2025.1.1,83.33333333333333,,001,0.496807893,0,"[0,0]",,no,2025-12-02_17h18.58.886,692e60e5c807364132bee744,,,"[""text_10"",""text_9""]","[0,1]",136,0,Win32,,1,,,human-judgements,0,,2025-12-02_17h19.04.604,"[3.786999999999921,4.52699999999993]",698832,,elm,1,,"[0,0]",0,581.4087999999523
﻿0,001,,eng-binoms-human-judgements,137,692f65cc7c3feb3eec0c8c8d,"[-0.01608874134181701,-0.3778506907326324]",abolition,,698832,,,"[1,1]",-0.074816086,5fdf1be98bcb1f7107541cb7,0,,585.6692999999523,,1,,586.1662999999523,0,0.871169481,"[-0.21571380129012419,-0.0207747197531045]",581.9105,emancipation and abolition,0,1599,,0,,114,abolition and emancipation,2025.1.1,83.33333333333333,,001,0.550529943,0,"[0,0]",,no,2025-12-02_17h18.58.886,692e60e5c807364132bee744,,,"[""text_10"",""text_9""]","[0,1]",137,0,Win32,,1,,,human-judgements,0,,2025-12-02_17h19.04.604,"[2.7652000000476846,3.5024000000953492]",698832,,emancipation,1,,"[0,0]",0,585.6694000000954
﻿1,001,,eng-binoms-human-judgements,138,692f65cc7c3feb3eec0c8c8d,"[0.003904991543170103,-0.3847235238987816]",mother,,698832,,,"[1,1]",0.321121134,5fdf1be98bcb1f7107541cb7,0,,588.798,,0,,589.3057000000476,0,0.936481971,"[0.3416119962511715,0.03795688847235239]",586.167,son and mother,-1,128987,,0,,7,mother and son,2025.1.1,83.33333333333333,,001,0.525403676,-1,"[0,0]",,no,2025-12-02_17h18.58.886,692e60e5c807364132bee744,,,"[""text_10"",""text_9""]","[0,1]",138,0,Win32,,1,,,human-judgements,0,,2025-12-02_17h19.04.604,"[1.6059999999999945,2.3651000001431157]",698832,,son,1,,"[0,0]",-1,588.7980999999046
﻿1,001,,eng-binoms-human-judgements,139,692f65cc7c3feb3eec0c8c8d,"[0.015776300832503514,-0.3809746954076851]",colonel,,698832,,,"[1,1]",-1.318277379,5fdf1be98bcb1f7107541cb7,0,,595.9692999999523,,0,,596.4674000000954,0,0.997565294,"[0.29475164011246485,0.015463917525773196]",589.3069000000953,mrs. and colonel,0,18072,,0,,59,colonel and mrs.,2025.1.1,83.33333333333333,,001,0.590343737,0,"[0,0]",,no,2025-12-02_17h18.58.886,692e60e5c807364132bee744,,,"[""text_10"",""text_9""]","[0,1]",139,0,Win32,,1,,,human-judgements,0,,2025-12-02_17h19.04.604,"[5.721499999999992,6.403200000047605]",698832,,mrs.,1,,"[0,0]",0,595.9694000000953
﻿0,001,,eng-binoms-human-judgements,140,692f65cc7c3feb3eec0c8c8d,"[-0.0023430178069353325,-0.4009684854952554]",attractions,,698832,,,"[1,1]",3.461694644,5fdf1be98bcb1f7107541cb7,0,,600.0677000000477,,0,,600.559,0,0.952314492,"[-0.1594813739236762,-0.015776300832503514]",596.4685,repulsions and attractions,0,12897,,0,,86,attractions and repulsions,2025.1.1,83.33333333333333,,001,0.672219952,0,"[0,0]",,no,2025-12-02_17h18.58.886,692e60e5c807364132bee744,,,"[""text_10"",""text_9""]","[0,1]",140,0,Win32,,1,,,human-judgements,1,,2025-12-02_17h19.04.604,"[2.628200000047741,3.342899999856968]",698832,,repulsions,1,,"[0,0]",0,600.0677999999523
﻿0,001,,eng-binoms-human-judgements,141,692f65cc7c3feb3eec0c8c8d,"[0.0007809868681173852,-0.007341493930119494,-0.43095911342402765,-0.40846614247744845]",eyes,,698832,,,"[1,1,1,1]",-0.011947487,5fdf1be98bcb1f7107541cb7,0,,609.0269000000953,,-1,,609.5192999999523,0,0.312657235,"[0.3322399250234302,-0.27507029053420806,0.011090322421216027,0.012339912850720478]",600.5604000000953,face and eyes,0,61214,,0,,44,eyes and face,2025.1.1,83.33333333333333,,001,0.455208265,0,"[0,0,0,0]",,no,2025-12-02_17h18.58.886,692e60e5c807364132bee744,,,"[""text_10"",""text_11"",null,""text_9""]","[0,0,1]",141,0,Win32,,1,,,human-judgements,0,,2025-12-02_17h19.04.604,"[3.2110999999046044,7.083200000047668,7.7752000000476755,8.213299999952369]",698832,,face,1,,"[0,0,0,0]",0,609.0269999999999
﻿0,001,,eng-binoms-human-judgements,142,692f65cc7c3feb3eec0c8c8d,"[0.014526710402999063,-0.4003436616792116]",life,,698832,,,"[1,1]",2.773367071,5fdf1be98bcb1f7107541cb7,1,,614.5437000000477,,0,,615.0362000000476,0,0.869007427,"[-0.2744454667181642,-0.042642924086223055]",609.5207999999523,promise and life,1,1481,,0,,20,life and promise,2025.1.1,83.33333333333333,,001,0.767950318,1,"[0,0]",,no,2025-12-02_17h18.58.886,692e60e5c807364132bee744,,,"[""text_11"",""text_9""]","[0,1]",142,0,Win32,,1,,,human-judgements,0,,2025-12-02_17h19.04.604,"[3.8802000000476937,4.765100000143093]",698832,,promise,1,,"[0,0]",1,614.5437999999523
﻿0,001,,eng-binoms-human-judgements,143,692f65cc7c3feb3eec0c8c8d,"[0.0032802249297094657,-0.38347393346927716]",games,,698832,,,"[1,1]",0.695532155,5fdf1be98bcb1f7107541cb7,0,,617.4592999999523,,1,,617.9527999999523,0,0.558846658,"[0.2766323786756092,-0.019525129323600048]",615.0377999999523,races and games,1,3815,,0,,163,games and races,2025.1.1,83.33333333333333,,001,0.674383414,1,"[0,0]",,no,2025-12-02_17h18.58.886,692e60e5c807364132bee744,,,"[""text_11"",""text_9""]","[0,1]",143,0,Win32,,1,,,human-judgements,0,,2025-12-02_17h19.04.604,"[1.4275999999046007,2.1647000000476737]",698832,,races,1,,"[0,0]",1,617.4594000000953
﻿-1,001,,eng-binoms-human-judgements,144,692f65cc7c3feb3eec0c8c8d,"[0.005154639175257732,-0.39721965700415884]",arrangers,,698832,,,"[1,1]",-3.617072484,5fdf1be98bcb1f7107541cb7,0,,620.4039000000954,,0,,620.8997999999523,0,0.179405181,"[0.20103092783505155,0.027335226815106608]",617.954,composers and arrangers,0,3127,,0,,73,arrangers and composers,2025.1.1,83.33333333333333,,001,0.295557195,0,"[0,0]",,no,2025-12-02_17h18.58.886,692e60e5c807364132bee744,,,"[""text_10"",""text_9""]","[0,1]",144,0,Win32,,1,,,human-judgements,0,,2025-12-02_17h19.04.604,"[1.5422000000477283,2.196700000047713]",698832,,composers,1,,"[0,0]",0,620.404
﻿0,001,,eng-binoms-human-judgements,145,692f65cc7c3feb3eec0c8c8d,"[-0.002967841622979147,-0.4072164948453608]",20s,,698832,,,"[1,1]",-0.702473161,5fdf1be98bcb1f7107541cb7,1,,622.9074000000953,,0,,623.4072000000476,0,1,"[0.3703530909530225,0.04170571696344892]",620.901,30s and 20s,0,5667,,1,,161,20s and 30s,2025.1.1,83.33333333333333,,001,0.840394712,0,"[0,0]",,no,2025-12-02_17h18.58.886,692e60e5c807364132bee744,,,"[""text_10"",""text_9""]","[0,1]",145,0,Win32,,1,,,human-judgements,0,,2025-12-02_17h19.04.604,"[1.0717999999523045,1.7534000000953256]",698832,,30s,1,,"[0,0]",0,622.9075
﻿0,001,,eng-binoms-human-judgements,146,692f65cc7c3feb3eec0c8c8d,"[-0.006091846298031865,-0.389097176205922]",ash,,698832,,,"[1,1]",0.593178795,5fdf1be98bcb1f7107541cb7,0,,625.8269000000954,,0,,626.3267000000477,0,0.432108027,"[0.34661047237435566,0.012964736666764292]",623.4082999999523,maple and ash,1,2666,,0,,102,ash and maple,2025.1.1,83.33333333333333,,001,0.62769128,1,"[0,0]",,no,2025-12-02_17h18.58.886,692e60e5c807364132bee744,,,"[""text_10"",""text_9""]","[0,1]",146,0,Win32,,1,,,human-judgements,0,,2025-12-02_17h19.04.604,"[1.2763000001907585,2.168100000143113]",698832,,maple,1,,"[0,0]",1,625.8269000000954
﻿0,001,,eng-binoms-human-judgements,147,692f65cc7c3feb3eec0c8c8d,"[0.006404229604762184,-0.3847235238987816]",north,,698832,,,"[1,1]",0.140452336,5fdf1be98bcb1f7107541cb7,1,,628.5957000000477,,0,,629.0945,0,0.728316906,"[-0.2538269100171333,-0.034520443287986174]",626.3282000000477,west and north,0,385427,,0,,14,north and west,2025.1.1,83.33333333333333,,001,0.61522347,0,"[0,0]",,no,2025-12-02_17h18.58.886,692e60e5c807364132bee744,,,"[""text_10"",""text_9""]","[0,1]",147,0,Win32,,1,,,human-judgements,0,,2025-12-02_17h19.04.604,"[1.3182999999523872,2.0142999999524136]",698832,,west,1,,"[0,0]",0,628.5957999999523
﻿0,001,,eng-binoms-human-judgements,148,692f65cc7c3feb3eec0c8c8d,"[-0.004842255868527413,-0.40846614247744845]",novels,,698832,,,"[1,1]",-1.342249901,5fdf1be98bcb1f7107541cb7,1,,631.6360999999047,,0,,632.1317999999522,0,0.494985401,"[0.30474859235883317,-0.01640112464854733]",629.0952999999523,stories and novels,0,70893,,0,,31,novels and stories,2025.1.1,83.33333333333333,,001,0.576488115,0,"[0,0]",,no,2025-12-02_17h18.58.886,692e60e5c807364132bee744,,,"[""text_11"",""text_9""]","[0,1]",148,0,Win32,,1,,,human-judgements,0,,2025-12-02_17h19.04.604,"[1.434299999952259,2.2854000000953647]",698832,,stories,1,,"[0,0]",0,631.6362000000477
﻿0,001,,eng-binoms-human-judgements,149,692f65cc7c3feb3eec0c8c8d,"[-0.004842255868527413,-0.394095595126523]",anger,,698832,,,"[1,1]",0.919325807,5fdf1be98bcb1f7107541cb7,0,,634.6284000000953,,0,,635.1210999999046,0,0.706633606,"[0.35535777698863635,0.014214327096268744]",632.1327000000476,hatred and anger,0,29441,,0,,42,anger and hatred,2025.1.1,83.33333333333333,,001,0.506635815,0,"[0,0]",,no,2025-12-02_17h18.58.886,692e60e5c807364132bee744,,,"[""text_10"",""text_9""]","[0,1]",149,-1,Win32,,1,,,human-judgements,0,,2025-12-02_17h19.04.604,"[1.2975999999046053,2.2442000000476128]",698832,,hatred,1,,"[0,0]",0,634.6285
﻿0,001,,eng-binoms-human-judgements,150,692f65cc7c3feb3eec0c8c8d,"[-0.012339912850720478,-0.39034676663542645]",piano,,698832,,,"[1,1]",1.103946853,5fdf1be98bcb1f7107541cb7,1,,637.4222999999523,,0,,637.9165999999046,0,0.223873183,"[0.29412687349900424,0.03670729804284794]",635.1222999999522,violin and piano,-1,90587,,0,,184,piano and violin,2025.1.1,83.33333333333333,,001,0.533018903,-1,"[0,0]",,no,2025-12-02_17h18.58.886,692e60e5c807364132bee744,,,"[""text_10"",""text_9""]","[0,1]",150,0,Win32,,1,,,human-judgements,0,,2025-12-02_17h19.04.604,"[1.303599999904577,2.0430000000000064]",698832,,violin,1,,"[0,0]",-1,637.4224000000953
﻿0,001,,eng-binoms-human-judgements,151,692f65cc7c3feb3eec0c8c8d,"[-0.018587979403409092,-0.39097159045147023]",excitement,,698832,,,"[1,1]",0.402382492,5fdf1be98bcb1f7107541cb7,0,,648.3422999999523,,0,,648.8460999999046,0,0.44699187,"[-0.18134957825679476,0.0035926654390229617]",637.9177000000477,fatigue and excitement,-1,6150,,0,,136,excitement and fatigue,2025.1.1,83.33333333333333,,001,0.486130053,-1,"[0,0]",,no,2025-12-02_17h18.58.886,692e60e5c807364132bee744,,,"[""text_10"",""text_9""]","[0,1]",151,0,Win32,,1,,,human-judgements,1,,2025-12-02_17h19.04.604,"[9.564100000143071,10.170799999952237]",698832,,fatigue,1,,"[0,0]",-1,648.3425
